
Run: 1 Realtime: 0 Accel sens: 2 Gyro sens: 250

Time Captured,Accel X,Accel Y,Accel Z,Gyro X,Gyro Y,Gyro Z,Magn X,Magn Y,Magn Z
3124925,-0.459961,-0.185059,0.858398,1.869202,0.228882,0.564575,22.412109,25.195313,-4.101563
6180107,-0.453857,-0.189209,0.871094,1.953125,0.000000,1.007080,22.412109,25.195313,-4.101563
9138879,-0.453857,-0.187744,0.880127,2.136230,0.099182,1.075745,22.412109,25.195313,-4.101563
12550574,-0.457764,-0.191162,0.876709,2.563477,-0.083923,1.419067,22.412109,25.195313,-4.101563
15121243,-0.458740,-0.187012,0.878662,2.616882,0.747681,1.777649,22.412109,25.195313,-4.101563
18098066,-0.460205,-0.182129,0.886719,3.051758,0.679016,1.541138,21.899414,24.829102,-4.467773
21097453,-0.460449,-0.179932,0.880127,3.311157,0.694275,1.724243,21.899414,24.829102,-4.467773
24134583,-0.459717,-0.174561,0.879395,3.631592,0.846863,1.724243,21.899414,24.829102,-4.467773
27090894,-0.470215,-0.167725,0.879150,3.616333,1.045227,1.853943,21.899414,24.829102,-4.467773
29591819,-0.468018,-0.162109,0.883545,4.287720,1.304626,1.831055,21.899414,24.829102,-4.467773
32157975,-0.469727,-0.157471,0.879639,4.295349,1.602173,1.388550,21.899414,24.829102,-4.467773
35156951,-0.473389,-0.158447,0.881348,4.890442,1.693726,1.617432,21.899414,24.829102,-4.467773
38129262,-0.471924,-0.152100,0.868164,5.294800,1.907349,0.839233,21.899414,25.415039,-4.174805
40628135,-0.470459,-0.145264,0.873291,5.592346,1.647949,0.885010,21.899414,25.415039,-4.174805
43673061,-0.472412,-0.142090,0.868896,5.752563,1.808167,0.671387,21.899414,25.415039,-4.174805
46641679,-0.475586,-0.139404,0.871826,6.004333,2.052307,0.366211,21.899414,25.415039,-4.174805
49673476,-0.474365,-0.136475,0.871582,5.905151,1.770020,0.190735,21.899414,25.415039,-4.174805
52178094,-0.473389,-0.132568,0.871826,5.737305,1.716614,-0.183105,21.899414,25.415039,-4.174805
54667121,-0.466064,-0.129639,0.866699,5.828857,1.640320,-0.091553,21.899414,25.415039,-4.174805
57744867,-0.465576,-0.134033,0.871338,5.279541,1.579285,-0.068665,21.752930,25.561523,-3.881836
60701178,-0.466797,-0.130371,0.869873,5.432129,1.266479,-0.358582,21.752930,25.561523,-3.881836
63722308,-0.461670,-0.127197,0.874512,5.508423,1.121521,-0.366211,21.752930,25.561523,-3.881836
66217490,-0.463135,-0.119629,0.872559,4.791260,1.167297,-0.564575,21.752930,25.561523,-3.881836
68762312,-0.462402,-0.125244,0.880371,4.783630,1.213074,-0.411987,21.752930,25.561523,-3.881836
71727238,-0.465576,-0.124512,0.872070,4.585266,1.296997,-0.549316,21.752930,25.561523,-3.881836
74806625,-0.462646,-0.124268,0.871094,4.226685,0.999451,-0.495911,21.752930,25.561523,-3.881836
77722730,-0.467285,-0.122559,0.874268,3.967285,1.098633,-0.610352,21.679688,25.488281,-3.662109
80274117,-0.459961,-0.125977,0.877197,3.677368,1.174927,-0.679016,21.679688,25.488281,-3.662109
83307145,-0.459229,-0.129150,0.880615,3.440857,0.961304,-0.823975,21.679688,25.488281,-3.662109
86354122,-0.458008,-0.126709,0.879395,2.937317,0.946045,-0.709534,21.679688,25.488281,-3.662109
89359252,-0.462402,-0.125244,0.887939,2.655029,1.121521,-0.747681,21.679688,25.488281,-3.662109
92286024,-0.458984,-0.127930,0.873535,2.555847,1.258850,-0.473022,21.679688,25.488281,-3.662109
94845206,-0.463135,-0.127441,0.880371,1.815796,1.449585,-0.755310,21.826172,25.488281,-3.662109
98352080,-0.469727,-0.125732,0.873047,1.777649,1.396179,-0.785828,21.826172,25.048828,-3.955078
101347775,-0.470703,-0.126221,0.873779,1.617432,1.853943,-0.450134,21.826172,25.048828,-3.955078
104330752,-0.475586,-0.125732,0.865967,1.457214,1.976013,-0.892639,21.826172,25.048828,-3.955078
106910446,-0.473145,-0.121338,0.861328,0.961304,1.945496,-0.999451,21.826172,25.048828,-3.955078
110411167,-0.474365,-0.120361,0.855225,0.724792,2.365112,-0.816345,21.826172,25.048828,-3.955078
113376913,-0.476807,-0.122070,0.856445,0.488281,2.189636,-1.289368,21.826172,25.048828,-3.955078
116380403,-0.473145,-0.121094,0.860596,0.122070,1.953125,-1.098633,22.192383,25.708008,-4.028320
118876405,-0.473389,-0.121338,0.860352,-0.320435,2.037048,-1.205444,22.192383,25.708008,-4.028320
121836407,-0.482422,-0.124268,0.848877,-0.679016,1.823425,-1.304626,22.192383,25.708008,-4.028320
124378358,-0.483643,-0.127197,0.847168,-0.709534,1.708984,-0.953674,22.192383,25.708008,-4.028320
126962975,-0.483887,-0.128418,0.847412,-1.091003,1.365662,-1.319885,22.338867,25.122070,-3.881836
129897132,-0.479492,-0.134033,0.845703,-1.052856,1.457214,-1.419067,22.338867,25.122070,-3.881836
132981852,-0.477295,-0.136230,0.838623,-1.823425,1.289368,-1.243591,22.338867,25.122070,-3.881836
135964419,-0.479004,-0.140625,0.850342,-1.617432,0.892639,-1.350403,21.826172,25.048828,-4.394531
138953139,-0.475342,-0.147217,0.844971,-1.724243,0.656128,-1.319885,21.826172,25.048828,-4.394531
141930372,-0.473877,-0.150635,0.847168,-1.609802,0.358582,-1.457214,21.826172,25.048828,-4.394531
144455913,-0.469727,-0.156006,0.849365,-1.556396,0.038147,-1.190186,21.826172,25.048828,-4.394531
147461864,-0.469238,-0.159912,0.850098,-1.625061,0.129700,-1.174927,21.459961,24.975586,-3.735352
150477661,-0.467285,-0.160645,0.851563,-1.281738,-0.030518,-1.304626,21.459961,24.975586,-3.735352
153518895,-0.464111,-0.165527,0.847412,-1.373291,-0.221252,-1.152039,21.459961,24.975586,-3.735352
156566282,-0.466553,-0.162842,0.854492,-1.296997,-0.343323,-0.907898,21.899414,24.536133,-4.467773
159978387,-0.458984,-0.166260,0.857666,-1.205444,-0.518799,-1.083374,21.899414,24.536133,-4.467773
163030287,-0.458740,-0.169922,0.866699,-0.915527,-0.480652,-0.915527,21.899414,24.536133,-4.467773
166041982,-0.458740,-0.163818,0.875244,-1.243591,-0.289917,-1.068115,22.338867,25.268555,-3.295898
169035625,-0.463623,-0.168213,0.878906,-0.946045,0.106812,-1.091003,22.338867,25.268555,-3.295898
172345577,-0.460449,-0.163818,0.875488,-0.930786,0.190735,-1.152039,22.338867,25.268555,-3.295898
175064348,-0.461426,-0.161377,0.886475,-0.793457,0.228882,-1.060486,22.631836,25.122070,-4.174805
178033376,-0.459229,-0.165527,0.887207,-0.625610,0.480652,-1.388550,22.631836,25.122070,-4.174805
181068456,-0.460205,-0.166260,0.887695,-1.060486,0.503540,-1.052856,22.631836,25.122070,-4.174805
184057176,-0.459229,-0.167480,0.885742,-1.037598,1.037598,-0.877380,22.631836,25.122070,-4.174805
187104563,-0.459473,-0.160889,0.888184,-1.098633,1.274109,-1.144409,21.826172,25.488281,-3.662109
190116668,-0.463135,-0.166016,0.890137,-0.915527,1.625061,-1.129150,21.826172,25.488281,-3.662109
193054107,-0.461914,-0.159668,0.878174,-1.266479,2.059937,-0.808716,21.826172,25.488281,-3.662109
195620673,-0.465820,-0.160645,0.879639,-1.243591,1.930237,-0.930786,22.119141,25.341797,-4.248047
198628265,-0.468994,-0.154541,0.879395,-1.029968,2.197266,-0.885010,22.119141,25.341797,-4.248047
201603857,-0.464111,-0.155029,0.874512,-1.373291,2.281189,-0.793457,22.119141,25.341797,-4.248047
204634834,-0.465088,-0.154541,0.868896,-1.541138,2.243042,-1.022339,22.119141,25.341797,-4.248047
207608785,-0.465820,-0.152100,0.866699,-1.472473,2.571106,-1.045227,22.192383,25.415039,-3.588867
210613095,-0.462646,-0.152588,0.868896,-1.251221,2.227783,-0.885010,22.192383,25.415039,-3.588867
213607970,-0.462402,-0.152832,0.864746,-1.770020,2.578735,-0.938416,22.192383,25.415039,-3.588867
216587664,-0.460449,-0.151611,0.861328,-1.831055,2.182007,-0.762939,22.192383,25.415039,-3.588867
219090231,-0.462158,-0.155273,0.868408,-2.044678,2.067566,-0.617981,22.192383,25.415039,-3.588867
221722028,-0.459229,-0.156250,0.863281,-2.174377,2.029419,-0.755310,22.192383,25.415039,-3.588867
224675056,-0.455078,-0.150879,0.867432,-2.349854,1.968384,-0.541687,22.192383,25.415039,-3.588867
227637109,-0.454346,-0.156494,0.863037,-2.914429,1.869202,-0.289917,22.119141,25.341797,-4.248047
230158958,-0.455322,-0.159668,0.858398,-2.792358,1.800537,0.061035,22.119141,25.341797,-4.248047
233142345,-0.448975,-0.159180,0.868164,-2.647400,1.808167,0.221252,22.119141,25.341797,-4.248047
235659680,-0.450684,-0.162842,0.869629,-3.379822,1.579285,0.350952,22.119141,25.341797,-4.248047
238155682,-0.448730,-0.161865,0.875244,-3.234863,2.029419,0.488281,22.119141,25.341797,-4.248047
240704607,-0.447754,-0.166992,0.875000,-3.181458,2.098083,0.679016,22.119141,25.341797,-4.248047
243255584,-0.445801,-0.170654,0.866455,-3.166199,2.082825,0.846863,22.119141,25.341797,-4.248047
246156099,-0.448486,-0.172363,0.874512,-2.937317,2.182007,0.831604,22.265625,25.048828,-4.833984
248703383,-0.454590,-0.173096,0.874512,-2.952576,2.395630,1.022339,22.265625,25.048828,-4.833984
251203898,-0.456787,-0.171631,0.869385,-2.777100,2.677917,0.823975,22.265625,25.048828,-4.833984
253713028,-0.459961,-0.173828,0.870850,-2.334595,2.731323,1.205444,22.265625,25.048828,-4.833984
256261133,-0.455811,-0.177490,0.867676,-2.403259,3.013611,1.144409,22.265625,25.048828,-4.833984
258715699,-0.464600,-0.177002,0.870605,-1.991272,3.128052,1.014709,22.265625,25.048828,-4.833984
261225239,-0.462402,-0.177002,0.864258,-2.014160,3.372192,0.892639,22.265625,25.048828,-4.833984
263806985,-0.463867,-0.173340,0.859131,-1.304626,3.768921,0.862122,22.265625,25.048828,-4.833984
266813757,-0.470459,-0.176270,0.853760,-1.441956,3.532410,0.740051,21.972656,25.048828,-4.541016
269812323,-0.471680,-0.177734,0.854980,-1.029968,3.761292,0.816345,21.972656,25.048828,-4.541016
272784223,-0.469727,-0.180420,0.852783,-0.389099,3.776550,0.595093,21.972656,25.048828,-4.541016
275816431,-0.468262,-0.182861,0.859131,-0.396729,3.791809,0.732422,21.972656,25.048828,-4.541016
278782587,-0.470215,-0.186523,0.850342,-0.152588,3.578186,0.198364,21.972656,25.048828,-4.541016
281859923,-0.469971,-0.186035,0.846191,0.251770,3.364563,0.404358,21.972656,25.048828,-4.541016
285407003,-0.471680,-0.194336,0.844971,0.572205,3.158569,0.015259,22.412109,25.634766,-4.541016
288347313,-0.473633,-0.191406,0.843750,0.541687,3.219604,0.366211,22.412109,25.634766,-4.541016
290856854,-0.477295,-0.199707,0.846436,1.091003,2.861023,0.495911,22.412109,25.634766,-4.541016
293785676,-0.479248,-0.196045,0.844238,1.159668,2.487183,0.389099,22.412109,25.634766,-4.541016
296365781,-0.478271,-0.195557,0.842773,1.632690,2.716064,0.396729,22.412109,25.634766,-4.541016
299415220,-0.481445,-0.196289,0.848877,1.701355,2.525330,0.495911,22.412109,25.634766,-4.541016
302383427,-0.483154,-0.194580,0.843750,2.326965,2.326965,0.457764,22.412109,25.634766,-4.541016
305335224,-0.477783,-0.195801,0.844971,2.861023,2.288818,0.221252,21.679688,25.781250,-4.394531
307879226,-0.478027,-0.192139,0.849121,2.952576,2.059937,0.389099,21.679688,25.781250,-4.394531
310885998,-0.472412,-0.194824,0.852539,3.311157,1.983643,0.190735,21.679688,25.781250,-4.394531
313884565,-0.474121,-0.187012,0.855713,3.791809,1.853943,0.572205,21.679688,25.781250,-4.394531
316883952,-0.469482,-0.188477,0.860596,3.585815,1.403809,0.251770,21.679688,25.781250,-4.394531
319383646,-0.468018,-0.179932,0.855957,4.257202,1.564026,0.251770,21.679688,25.781250,-4.394531
322425290,-0.469971,-0.177734,0.862305,4.150391,1.144409,0.625610,21.679688,25.781250,-4.394531
325463651,-0.467529,-0.176025,0.859863,4.066467,1.495361,0.511169,21.899414,25.415039,-4.174805
328463448,-0.468750,-0.168213,0.862549,3.898621,1.472473,0.679016,21.899414,25.415039,-4.174805
331473092,-0.469727,-0.166260,0.866943,4.043579,1.457214,0.762939,21.899414,25.415039,-4.174805
334455248,-0.468262,-0.164551,0.868408,3.959656,1.632690,0.999451,21.899414,25.415039,-4.174805
337942841,-0.465088,-0.157959,0.874512,3.913879,1.708984,0.793457,21.899414,25.415039,-4.174805
341019766,-0.472168,-0.155029,0.868896,3.761292,1.815796,1.205444,21.899414,25.415039,-4.174805
344464282,-0.471680,-0.152100,0.868164,3.356934,1.960754,1.045227,21.899414,25.415039,-4.174805
347453003,-0.472412,-0.154053,0.872314,3.143311,2.182007,1.136780,22.192383,25.268555,-4.614258
350504082,-0.471436,-0.147949,0.869385,3.112793,1.899719,1.235962,22.192383,25.268555,-4.614258
353528495,-0.471191,-0.146729,0.866211,2.822876,1.670837,1.251221,22.192383,25.268555,-4.614258
356500395,-0.467041,-0.147949,0.864990,2.166748,2.204895,1.152039,22.192383,25.268555,-4.614258
358998448,-0.468506,-0.146240,0.857178,2.281189,2.067566,1.129150,22.192383,25.268555,-4.614258
362000297,-0.467285,-0.144043,0.864014,2.006531,1.945496,1.174927,22.192383,25.268555,-4.614258
364552093,-0.470459,-0.151611,0.862305,1.770020,2.052307,0.953674,22.778320,25.268555,-4.028320
367502250,-0.473145,-0.146484,0.863770,1.792908,1.953125,0.946045,22.778320,25.268555,-4.028320
370549227,-0.478516,-0.151367,0.869629,1.914978,1.998901,0.831604,22.778320,25.268555,-4.028320
373554357,-0.480469,-0.155273,0.862305,1.976013,2.006531,0.419617,22.778320,25.268555,-4.028320
376523385,-0.482666,-0.154053,0.872803,2.243042,2.006531,0.427246,22.778320,25.268555,-4.028320
379097746,-0.476563,-0.155518,0.867676,1.892090,2.082825,-0.076294,22.778320,25.268555,-4.028320
382031082,-0.482910,-0.164307,0.864014,2.464294,2.067566,0.122070,22.778320,25.268555,-4.028320
384563187,-0.488525,-0.165283,0.864502,2.632141,1.739502,-0.480652,22.631836,25.415039,-3.881836
387577343,-0.490479,-0.173584,0.864990,2.487183,1.800537,-0.289917,22.631836,25.415039,-3.881836
390086063,-0.489990,-0.171143,0.859375,2.975464,1.800537,-0.205994,22.631836,25.415039,-3.881836
393069450,-0.489014,-0.176025,0.859131,2.677917,1.640320,-0.160217,22.631836,25.415039,-3.881836
395581452,-0.487793,-0.173828,0.851318,3.021240,1.731873,-0.175476,22.631836,25.415039,-3.881836
398071300,-0.489502,-0.174316,0.848877,2.906799,1.602173,-0.442505,22.631836,25.415039,-3.881836
400649354,-0.491943,-0.174561,0.847168,3.471375,1.281738,-0.267029,22.631836,25.415039,-3.881836
403622074,-0.489746,-0.170654,0.845703,3.601074,1.312256,-0.473022,22.631836,25.415039,-3.881836
406121358,-0.494629,-0.167236,0.842773,3.990173,1.243591,-0.457764,22.412109,25.048828,-3.808594
408625566,-0.487793,-0.166016,0.846436,4.257202,0.839233,-0.656128,22.412109,25.048828,-3.808594
411122388,-0.480713,-0.165039,0.835449,4.096985,0.816345,-0.602722,22.412109,25.048828,-3.808594
413757057,-0.475586,-0.163818,0.835938,4.280090,0.579834,-0.549316,22.412109,25.048828,-3.808594
416624341,-0.475830,-0.164307,0.838135,4.219055,0.289917,-0.450134,22.412109,25.048828,-3.808594
419207728,-0.475342,-0.158203,0.833252,4.074097,0.053406,-0.610352,22.412109,25.048828,-3.808594
422128756,-0.472656,-0.158203,0.831299,4.043579,0.068665,-0.381470,22.412109,25.048828,-3.808594
424756451,-0.471436,-0.155273,0.837402,3.837585,-0.373840,-0.320435,22.338867,24.682617,-4.760742
427758299,-0.471436,-0.154297,0.836426,3.524780,-0.457764,-0.160217,22.338867,24.682617,-4.760742
430762199,-0.472412,-0.156494,0.834229,3.486633,-0.556946,-0.007629,22.338867,24.682617,-4.760742
433753381,-0.471436,-0.155762,0.839111,3.280640,-0.640869,-0.053406,22.338867,24.682617,-4.760742
436748666,-0.468750,-0.157715,0.852295,3.501892,-0.808716,-0.015259,22.338867,24.682617,-4.760742
439682001,-0.472412,-0.156738,0.851318,3.166199,-0.595093,0.373840,22.338867,24.682617,-4.760742
442336362,-0.472412,-0.159180,0.851318,3.204346,-0.717163,0.312805,22.338867,24.682617,-4.760742
445230724,-0.475098,-0.154541,0.863037,2.998352,-0.785828,0.610352,22.558594,24.609375,-3.662109
448233393,-0.471680,-0.157471,0.867188,3.425598,-0.724792,0.831604,22.558594,24.609375,-3.662109
451273806,-0.475098,-0.159424,0.863037,3.173828,-0.427246,0.808716,22.558594,24.609375,-3.662109
454310526,-0.475830,-0.157715,0.868164,3.311157,-0.473022,1.174927,22.558594,24.609375,-3.662109
457359965,-0.475830,-0.156250,0.865967,3.105164,-0.587463,1.037598,22.558594,24.609375,-3.662109
460279762,-0.476318,-0.149658,0.859619,3.150940,-0.053406,1.274109,22.558594,24.609375,-3.662109
463364072,-0.473633,-0.150879,0.864258,3.204346,0.022888,1.358032,22.558594,24.609375,-3.662109
466360998,-0.473877,-0.148926,0.864502,3.181458,-0.091553,1.342773,21.899414,25.561523,-4.174805
469319769,-0.470947,-0.145020,0.868652,2.799988,-0.106812,1.419067,21.899414,25.561523,-4.174805
472285925,-0.468262,-0.143799,0.860107,2.204895,-0.038147,1.441956,21.899414,25.561523,-4.174805
474781928,-0.466309,-0.144287,0.864014,2.174377,-0.213623,1.464844,21.899414,25.561523,-4.174805
477282032,-0.464844,-0.145264,0.863770,2.426147,-0.205994,1.358032,21.899414,25.561523,-4.174805
479858855,-0.464355,-0.150879,0.866699,2.243042,-0.152588,1.327515,21.899414,25.561523,-4.174805
482830344,-0.462646,-0.151367,0.868408,1.930237,-0.205994,1.014709,21.899414,25.561523,-4.174805
485328398,-0.460938,-0.153076,0.868164,2.067566,-0.389099,1.434326,22.045898,25.268555,-4.467773
487825220,-0.461426,-0.156738,0.864746,1.930237,0.144958,1.434326,22.045898,25.268555,-4.467773
490330658,-0.460205,-0.158936,0.866211,2.029419,-0.015259,1.380920,22.045898,25.268555,-4.467773
492882455,-0.464111,-0.158691,0.864502,1.991272,0.465393,1.266479,22.045898,25.268555,-4.467773
495831791,-0.461670,-0.159424,0.865723,2.365112,0.167847,1.296997,21.679688,25.634766,-4.394531
498334357,-0.462891,-0.161621,0.872803,2.380371,0.495911,1.403809,21.679688,25.634766,-4.394531
500877128,-0.463379,-0.163086,0.871582,2.311707,0.411987,1.228333,21.679688,25.634766,-4.394531
503380105,-0.470215,-0.166504,0.865967,2.624512,0.373840,1.144409,22.338867,25.122070,-4.467773
506379902,-0.464111,-0.159424,0.877197,2.624512,0.900269,1.121521,22.338867,25.122070,-4.467773
508878366,-0.470459,-0.157959,0.876465,2.952576,0.579834,1.342773,22.338867,25.122070,-4.467773
511425240,-0.466553,-0.156250,0.868408,2.525330,0.984192,1.266479,22.338867,25.122070,-4.467773
513932729,-0.467285,-0.152100,0.872803,2.944946,0.900269,1.335144,22.485352,25.122070,-4.174805
516435295,-0.467529,-0.156738,0.884033,2.754211,0.946045,1.052856,22.485352,25.122070,-4.174805
518928425,-0.468018,-0.153076,0.873779,2.723694,1.045227,1.014709,22.485352,25.122070,-4.174805
521432222,-0.468750,-0.153809,0.872803,2.769470,0.968933,1.190186,22.485352,25.122070,-4.174805
523930276,-0.468262,-0.149414,0.875244,2.494812,1.052856,1.235962,22.192383,24.829102,-4.467773
526429149,-0.467773,-0.151123,0.869873,2.151489,1.113892,1.121521,22.192383,24.829102,-4.467773
528962075,-0.468750,-0.149658,0.869141,1.510620,1.312256,1.373291,22.192383,24.829102,-4.467773
532013154,-0.474121,-0.150635,0.869385,1.541138,0.938416,1.289368,22.192383,24.829102,-4.467773
535011310,-0.467041,-0.155029,0.866455,1.831055,1.075745,1.525879,22.558594,25.341797,-4.394531
538063620,-0.468750,-0.153564,0.863037,1.258850,1.052856,1.838684,22.558594,25.341797,-4.394531
541064649,-0.472656,-0.153076,0.864258,1.182556,1.113892,1.487732,22.558594,25.341797,-4.394531
543999215,-0.470459,-0.154541,0.857178,1.304626,1.121521,1.899719,22.631836,24.829102,-4.028320
546491935,-0.475098,-0.152832,0.859863,1.098633,1.075745,1.632690,22.631836,24.829102,-4.028320
549025270,-0.473145,-0.156738,0.864014,1.266479,1.037598,1.518250,22.631836,24.829102,-4.028320
552023427,-0.475830,-0.158691,0.858643,1.197815,1.350403,1.815796,22.631836,24.829102,-4.028320
555088865,-0.475586,-0.161133,0.861328,1.075745,0.724792,1.693726,22.338867,24.975586,-4.028320
558105073,-0.471436,-0.160156,0.854492,1.213074,0.923157,1.663208,22.338867,24.975586,-4.028320
561029383,-0.477295,-0.161865,0.845215,1.342773,0.946045,1.869202,22.338867,24.975586,-4.028320
563521282,-0.477539,-0.162354,0.858398,1.304626,1.022339,1.701355,21.679688,25.195313,-3.808594
566015233,-0.476074,-0.165771,0.855469,1.556396,0.900269,1.640320,21.679688,25.195313,-3.808594
568555543,-0.474854,-0.158936,0.849121,1.770020,0.831604,1.739502,21.679688,25.195313,-3.808594
571627956,-0.480713,-0.158203,0.850586,1.731873,0.892639,1.625061,21.679688,25.195313,-3.808594
574601907,-0.482666,-0.160156,0.851563,1.693726,0.724792,1.831055,22.045898,25.708008,-4.028320
577619755,-0.483154,-0.159180,0.846680,1.617432,0.816345,1.991272,22.045898,25.708008,-4.028320
580601912,-0.482666,-0.160156,0.851807,1.670837,0.625610,1.892090,22.045898,25.708008,-4.028320
583581196,-0.484863,-0.155273,0.854248,1.586914,0.205994,1.991272,22.045898,25.708008,-4.028320
586084993,-0.480225,-0.153809,0.855225,1.525879,0.274658,1.953125,22.045898,25.708008,-4.028320
588587149,-0.482422,-0.151367,0.863037,1.457214,0.099182,1.686096,22.045898,25.708008,-4.028320
591639459,-0.484131,-0.150635,0.857178,1.770020,0.328064,1.884460,22.045898,25.708008,-4.028320
594589205,-0.485840,-0.148438,0.859619,1.213074,0.144958,1.777649,22.338867,26.000977,-4.907227
597086438,-0.483154,-0.144531,0.857178,1.243591,-0.228882,1.762390,22.338867,26.000977,-4.907227
599662030,-0.486328,-0.144287,0.861572,1.411438,-0.129700,1.731873,22.338867,26.000977,-4.907227
602629827,-0.481445,-0.145020,0.865967,1.228333,-0.343323,1.464844,22.338867,26.000977,-4.907227
605208701,-0.480469,-0.142090,0.863770,1.342773,-0.144958,1.174927,22.338867,26.000977,-4.907227
607685011,-0.484619,-0.142578,0.865234,1.388550,-0.358582,0.968933,22.338867,26.000977,-4.907227
610183475,-0.483154,-0.143311,0.868652,1.655579,-0.251770,0.762939,22.338867,26.000977,-4.907227
613684606,-0.477295,-0.144775,0.863525,1.655579,-0.274658,0.610352,22.045898,25.415039,-4.174805
616221223,-0.476563,-0.145264,0.866943,1.792908,-0.541687,0.007629,22.045898,25.415039,-4.174805
619237841,-0.472412,-0.147217,0.864990,1.640320,-0.396729,-0.038147,22.045898,25.415039,-4.174805
622193741,-0.472412,-0.152832,0.862305,1.968384,-0.778198,-0.518799,22.045898,25.415039,-4.174805
624775486,-0.473145,-0.152100,0.877441,2.105713,-0.526428,-0.846863,22.045898,25.415039,-4.174805
627767079,-0.473877,-0.155273,0.870361,1.762390,-0.679016,-0.968933,22.045898,25.415039,-4.174805
630769748,-0.471924,-0.156250,0.863770,1.960754,-0.885010,-0.488281,22.045898,25.415039,-4.174805
633692417,-0.467529,-0.160400,0.875000,2.029419,-0.480652,-0.946045,22.631836,25.708008,-4.467773
636190060,-0.467773,-0.164307,0.872803,2.159119,-0.442505,-0.793457,22.631836,25.708008,-4.467773
638737344,-0.468750,-0.169922,0.876709,1.991272,-0.320435,-1.022339,22.631836,25.708008,-4.467773
641214064,-0.468262,-0.169922,0.865723,1.937866,-0.564575,-0.808716,22.631836,25.708008,-4.467773
643713758,-0.464600,-0.174072,0.866455,2.059937,-0.480652,-1.029968,22.631836,25.708008,-4.467773
646266786,-0.463867,-0.174316,0.876465,2.021790,-0.236511,-0.457764,22.631836,25.708008,-4.467773
648761968,-0.457764,-0.177734,0.867676,2.151489,-0.404358,-0.823975,22.631836,25.708008,-4.467773
651285867,-0.462891,-0.177002,0.879395,2.182007,-0.381470,-0.465393,22.631836,25.708008,-4.467773
654314793,-0.461670,-0.177490,0.872314,2.227783,-0.427246,-0.465393,22.119141,25.488281,-3.955078
657309257,-0.460693,-0.177734,0.873535,1.785278,-0.335693,-0.122070,22.119141,25.488281,-3.955078
659809361,-0.461914,-0.179443,0.868408,2.021790,-0.267029,0.160217,22.119141,25.488281,-3.955078
662889569,-0.465088,-0.180420,0.873535,1.968384,0.030518,0.419617,22.119141,25.488281,-3.955078
665811418,-0.462891,-0.177246,0.861816,1.815796,0.190735,0.450134,22.119141,25.488281,-3.955078
668300445,-0.466064,-0.178711,0.863525,2.204895,0.312805,0.724792,22.119141,25.488281,-3.955078
670810806,-0.466797,-0.173096,0.867432,2.624512,0.419617,0.885010,22.119141,25.488281,-3.955078
673859424,-0.469482,-0.168701,0.865479,2.029419,0.381470,0.808716,22.338867,24.975586,-4.028320
676889170,-0.468262,-0.173096,0.860107,2.731323,0.129700,0.854492,22.338867,24.975586,-4.028320
679895942,-0.471924,-0.171631,0.866943,2.494812,0.495911,0.709534,22.338867,24.975586,-4.028320
682856765,-0.466309,-0.173096,0.859863,2.593994,0.053406,0.633240,22.338867,24.975586,-4.028320
685350716,-0.468750,-0.176270,0.855713,3.059387,0.099182,0.839233,22.338867,24.975586,-4.028320
687858205,-0.469482,-0.170410,0.852295,3.028870,0.144958,0.549316,22.338867,24.975586,-4.028320
690856771,-0.470703,-0.172119,0.853027,2.967834,0.045776,0.793457,22.338867,24.975586,-4.028320
693360158,-0.474365,-0.170654,0.859375,3.349304,-0.106812,0.572205,22.045898,25.122070,-4.760742
696376366,-0.479736,-0.172852,0.863281,3.112793,0.137329,0.679016,22.045898,25.122070,-4.760742
699358522,-0.479004,-0.170654,0.860352,3.623962,0.061035,0.534058,22.045898,25.122070,-4.760742
702366114,-0.474365,-0.170898,0.855713,3.593445,0.045776,0.640869,22.045898,25.122070,-4.760742
704920783,-0.477051,-0.172852,0.859619,3.784180,-0.175476,0.747681,22.045898,25.122070,-4.760742
707975965,-0.474121,-0.172119,0.861328,3.852844,0.022888,0.953674,22.045898,25.122070,-4.760742
710901096,-0.468994,-0.172363,0.863281,3.898621,-0.106812,0.679016,22.045898,25.122070,-4.760742
713486534,-0.471680,-0.173828,0.863037,4.364014,-0.083923,0.709534,22.192383,25.415039,-5.053711
716438331,-0.471436,-0.172607,0.860840,4.013062,-0.549316,1.052856,22.192383,25.415039,-5.053711
718935974,-0.468262,-0.171631,0.863525,4.302979,-0.427246,1.007080,22.192383,25.415039,-5.053711
721472181,-0.469482,-0.171875,0.867676,4.402161,-0.213623,0.694275,22.192383,25.415039,-5.053711
723964901,-0.465332,-0.177246,0.871094,4.409790,-0.297546,1.045227,22.192383,25.415039,-5.053711
726460493,-0.464600,-0.177490,0.871094,4.226685,-0.129700,1.159668,22.192383,25.415039,-5.053711
728964290,-0.466064,-0.177734,0.870361,4.776001,-0.129700,1.304626,22.192383,25.415039,-5.053711
731961626,-0.468018,-0.176270,0.875977,4.417419,-0.099182,1.373291,22.192383,25.415039,-5.053711
734545833,-0.467041,-0.177002,0.871094,4.981995,-0.213623,1.457214,21.826172,25.341797,-4.248047
737522656,-0.464844,-0.171875,0.870850,4.753113,0.152588,1.434326,21.826172,25.341797,-4.248047
740479376,-0.464355,-0.166504,0.868408,5.043030,0.022888,1.518250,21.826172,25.341797,-4.248047
743056609,-0.465332,-0.164551,0.870605,4.882813,0.015259,1.632690,21.826172,25.341797,-4.248047
746064201,-0.466064,-0.158203,0.866211,5.256653,0.205994,1.640320,21.826172,25.341797,-4.248047
749029947,-0.459717,-0.153320,0.865967,5.126953,0.328064,1.556396,21.826172,25.341797,-4.248047
751527590,-0.463379,-0.152344,0.864990,4.776001,0.137329,1.373291,21.826172,25.341797,-4.248047
754530260,-0.467041,-0.145752,0.865234,4.943848,0.587463,1.922607,21.899414,25.561523,-4.028320
757024210,-0.467529,-0.136719,0.869629,4.669189,0.106812,1.472473,21.899414,25.561523,-4.028320
759606366,-0.467773,-0.140381,0.866455,4.814148,0.450134,1.724243,21.899414,25.561523,-4.028320
762538882,-0.469727,-0.136475,0.873535,4.425049,0.572205,1.419067,21.899414,25.561523,-4.028320
765628525,-0.471436,-0.135498,0.866455,4.020691,0.556946,1.609802,21.899414,25.561523,-4.028320
769080836,-0.473389,-0.130859,0.857666,3.883362,0.762939,1.533508,21.899414,25.561523,-4.028320
772140941,-0.479004,-0.131104,0.869141,3.868103,0.831604,1.525879,21.899414,25.561523,-4.028320
775100943,-0.488037,-0.124268,0.867432,3.753662,0.740051,1.296997,21.899414,24.829102,-4.174805
778177459,-0.482910,-0.128906,0.856445,3.791809,0.724792,1.251221,21.899414,24.829102,-4.174805
781166999,-0.480225,-0.125732,0.859375,3.517151,0.770569,1.403809,21.899414,24.829102,-4.174805
784097874,-0.480225,-0.127197,0.860352,3.364563,0.350952,0.816345,21.899414,24.829102,-4.174805
787191210,-0.483398,-0.125977,0.859619,3.105164,0.549316,1.007080,21.899414,24.829102,-4.174805
790147930,-0.479248,-0.122314,0.851807,2.952576,0.114441,0.740051,21.899414,24.829102,-4.174805
792605778,-0.477051,-0.128906,0.854492,2.388000,0.099182,0.900269,21.972656,25.781250,-3.808594
795160857,-0.476318,-0.131592,0.853760,2.441406,-0.183105,0.923157,21.972656,25.781250,-3.808594
797651936,-0.473145,-0.133545,0.851563,2.143860,-0.411987,0.930786,21.972656,25.781250,-3.808594
800149579,-0.474854,-0.135986,0.852539,1.602173,-0.503540,0.724792,21.972656,25.781250,-3.808594
802725991,-0.474121,-0.141602,0.857422,1.861572,-0.488281,1.014709,21.972656,25.781250,-3.808594
805726199,-0.476563,-0.146973,0.851807,1.190186,-0.816345,1.029968,21.972656,25.781250,-3.808594
808731740,-0.473633,-0.146484,0.865479,1.235962,-0.587463,1.159668,21.972656,25.781250,-3.808594
811710614,-0.468262,-0.156494,0.855957,1.152039,-0.877380,1.319885,21.972656,25.781250,-3.808594
814202924,-0.468262,-0.157227,0.853271,0.946045,-0.755310,1.312256,22.558594,24.902344,-4.248047
817221183,-0.464111,-0.163574,0.858887,0.961304,-0.862122,1.502991,22.558594,24.902344,-4.248047
819720467,-0.464111,-0.164795,0.860596,0.946045,-0.915527,1.617432,22.558594,24.902344,-4.248047
822735444,-0.462158,-0.165771,0.864746,1.129150,-0.839233,1.983643,22.558594,24.902344,-4.248047
825311446,-0.460449,-0.171875,0.868164,0.907898,-0.869751,2.029419,22.558594,24.902344,-4.248047
828302218,-0.460938,-0.170898,0.864746,1.068115,-0.885010,2.136230,22.558594,24.902344,-4.248047
831303246,-0.458008,-0.171387,0.869385,1.289368,-0.862122,2.250671,22.558594,24.902344,-4.248047
834246017,-0.463379,-0.168945,0.871338,1.159668,-0.862122,2.349854,21.972656,25.048828,-4.248047
837322943,-0.459229,-0.168457,0.874756,1.449585,-0.694275,2.555847,21.972656,25.048828,-4.248047
840300176,-0.467773,-0.166992,0.875488,1.426697,-0.305176,2.822876,21.972656,25.048828,-4.248047
843367666,-0.469727,-0.166016,0.863525,1.686096,-0.236511,2.655029,21.972656,25.048828,-4.248047
846294848,-0.499268,-0.136719,0.869873,0.770569,-0.701904,3.219604,21.972656,25.048828,-4.248047
849298337,-0.496582,-0.130859,0.862549,-0.083923,-0.907898,3.097534,21.972656,25.048828,-4.248047
851793519,-0.485840,-0.151611,0.864258,-0.137329,-1.144409,3.158569,22.338867,25.708008,-4.028320
854298547,-0.464111,-0.156250,0.855713,0.564575,-0.946045,3.646851,22.338867,25.708008,-4.028320
856803164,-0.462891,-0.141602,0.849121,0.404358,-0.679016,3.158569,22.338867,25.708008,-4.028320
859306140,-0.468750,-0.144287,0.846436,0.755310,-0.602722,3.273010,22.338867,25.708008,-4.028320
861811989,-0.472412,-0.147705,0.844238,1.098633,-0.480652,3.143311,22.412109,25.927734,-3.515625
864307170,-0.477051,-0.145020,0.849609,1.487732,-0.541687,2.487183,22.412109,25.927734,-3.515625
866855275,-0.479980,-0.152588,0.842041,1.907349,-0.419617,2.105713,22.412109,25.927734,-3.515625
869392713,-0.483398,-0.146240,0.840576,2.113342,-0.411987,1.991272,22.412109,25.927734,-3.515625
872468818,-0.483887,-0.140381,0.841309,2.388000,-0.671387,1.380920,22.412109,26.220703,-4.101563
875448513,-0.488525,-0.139160,0.856201,2.685547,-0.633240,1.007080,22.412109,26.220703,-4.101563
878443797,-0.487793,-0.128418,0.848877,2.853394,-0.648499,0.587463,22.412109,26.220703,-4.101563
881423902,-0.485352,-0.131104,0.852539,2.525330,-0.885010,0.244141,22.412109,26.220703,-4.101563
884434366,-0.481934,-0.128906,0.861572,2.906799,-1.167297,-0.007629,21.679688,25.488281,-3.369141
887425138,-0.473389,-0.129883,0.865967,2.441406,-1.533508,-0.213623,21.679688,25.488281,-3.369141
889910473,-0.468018,-0.129883,0.870850,2.357483,-1.930237,-0.602722,21.679688,25.488281,-3.369141
892411398,-0.462891,-0.142334,0.871582,2.044678,-2.052307,-0.579834,21.679688,25.195313,-3.662109
894906170,-0.458740,-0.142578,0.874023,2.189636,-1.777649,-0.480652,21.679688,25.195313,-3.662109
897451403,-0.455811,-0.149658,0.884521,1.739502,-2.235413,-0.572205,21.679688,25.195313,-3.662109
899986379,-0.453125,-0.156494,0.881836,1.502991,-1.731873,-0.358582,21.679688,25.195313,-3.662109
902910279,-0.449463,-0.156738,0.879395,1.342773,-1.472473,-0.251770,21.972656,25.048828,-4.394531
905456332,-0.450684,-0.168701,0.891357,1.091003,-1.808167,-0.137329,21.972656,25.048828,-4.394531
907955206,-0.451416,-0.170410,0.890137,1.220703,-1.464844,0.358582,21.972656,25.048828,-4.394531
910499208,-0.450195,-0.167725,0.893066,0.999451,-1.464844,0.236511,21.972656,25.048828,-4.394531
913538390,-0.454834,-0.172607,0.892334,1.213074,-1.129150,0.625610,22.631836,25.122070,-4.028320
916512341,-0.452393,-0.171631,0.889404,1.296997,-0.968933,0.686646,22.631836,25.122070,-4.028320
920089780,-0.452393,-0.168945,0.891113,1.014709,-0.579834,0.740051,22.631836,25.122070,-4.028320
923054295,-0.452637,-0.172363,0.890625,1.403809,-0.381470,1.266479,22.338867,25.268555,-3.588867
926111939,-0.460693,-0.172119,0.885986,1.426697,-0.381470,1.091003,22.338867,25.268555,-3.588867
929067428,-0.457520,-0.164795,0.889404,2.159119,-0.175476,1.167297,22.338867,25.268555,-3.588867
932614919,-0.459961,-0.165283,0.875488,2.090454,0.122070,0.938416,22.338867,25.268555,-3.588867
935569998,-0.462158,-0.165771,0.886963,2.342224,0.305176,0.778198,22.338867,25.268555,-3.588867
938532462,-0.462646,-0.159912,0.886475,2.792358,0.175476,0.686646,22.338867,25.268555,-3.588867
941040361,-0.467285,-0.155518,0.872070,3.067017,0.022888,0.465393,22.192383,25.268555,-3.442383
943528979,-0.471191,-0.154053,0.874756,3.097534,0.556946,0.312805,22.192383,25.268555,-3.442383
946040160,-0.468994,-0.154297,0.884277,3.593445,0.167847,0.045776,22.192383,25.268555,-3.442383
948537803,-0.469482,-0.157959,0.872559,3.471375,0.503540,-0.083923,22.192383,25.268555,-3.442383
951087139,-0.472412,-0.151855,0.873291,4.119873,0.411987,-0.480652,22.192383,25.268555,-3.442383
954101705,-0.467285,-0.145752,0.879883,4.356384,0.160217,-0.701904,22.192383,25.268555,-3.442383
957126939,-0.468994,-0.151611,0.864990,4.516602,0.297546,-0.831604,22.192383,25.268555,-3.442383
960178428,-0.468750,-0.152588,0.871582,4.577637,-0.022888,-0.999451,22.192383,25.268555,-3.442383
963180687,-0.463867,-0.151367,0.866943,4.798889,0.167847,-1.525879,21.972656,25.488281,-3.955078
966097202,-0.460938,-0.155762,0.866699,4.508972,-0.045776,-1.312256,21.972656,25.488281,-3.955078
968697820,-0.459717,-0.153809,0.865479,4.447937,0.144958,-0.984192,21.972656,25.488281,-3.955078
971741515,-0.466064,-0.157715,0.871094,4.341125,-0.045776,-1.266479,21.972656,25.488281,-3.955078
974711363,-0.457520,-0.155273,0.869141,4.142761,-0.144958,-0.999451,21.972656,25.488281,-3.955078
977675468,-0.457275,-0.158203,0.871338,4.081726,-0.015259,-0.747681,21.972656,25.488281,-3.955078
980675266,-0.454346,-0.160400,0.867432,4.096985,0.068665,-0.801086,21.972656,25.488281,-3.955078
983634037,-0.458984,-0.164307,0.876953,3.585815,-0.022888,-0.450134,21.899414,25.561523,-4.467773
986623989,-0.449951,-0.166748,0.866211,4.074097,0.007629,-0.343323,21.899414,25.561523,-4.467773
989257837,-0.444336,-0.164063,0.876709,3.440857,0.053406,-0.289917,21.899414,25.561523,-4.467773
992182147,-0.447021,-0.166260,0.872803,4.051208,0.312805,0.274658,21.899414,25.561523,-4.467773
994689636,-0.444092,-0.166504,0.878662,3.860474,0.190735,0.068665,21.899414,25.561523,-4.467773
997181946,-0.445801,-0.165039,0.873047,3.700256,0.137329,0.572205,21.899414,25.561523,-4.467773
1000230564,-0.448975,-0.166260,0.880371,3.654480,0.640869,0.549316,21.899414,25.561523,-4.467773
1003266053,-0.450195,-0.165771,0.881104,3.723145,0.602722,0.885010,21.972656,25.195313,-3.808594
1006228517,-0.447510,-0.161377,0.880371,3.913879,0.549316,0.831604,21.972656,25.195313,-3.808594
1008729853,-0.447998,-0.164795,0.879150,3.273010,1.045227,1.152039,21.972656,25.195313,-3.808594
1011230778,-0.450439,-0.161865,0.888428,3.433228,1.594543,0.953674,21.972656,25.195313,-3.808594
1013733754,-0.449707,-0.161377,0.885742,3.517151,1.327515,1.434326,21.972656,25.195313,-3.808594
1016778270,-0.451904,-0.161133,0.879150,3.608704,1.670837,1.296997,21.972656,25.195313,-3.808594
1019733349,-0.461182,-0.157715,0.889893,3.265381,1.831055,1.518250,21.972656,25.195313,-3.808594
1022776634,-0.458740,-0.156738,0.877686,3.479004,2.220154,1.686096,22.265625,25.634766,-3.662109
1025742790,-0.464600,-0.154053,0.881104,3.601074,2.197266,1.625061,22.265625,25.634766,-3.662109
1028240843,-0.466064,-0.150635,0.879639,3.082275,2.296448,1.762390,22.265625,25.634766,-3.662109
1031247205,-0.470215,-0.150146,0.876709,3.372192,2.388000,1.579285,22.265625,25.634766,-3.662109
1034258489,-0.473633,-0.149902,0.864990,3.486633,2.792358,1.640320,22.265625,25.634766,-3.662109
1036755722,-0.477051,-0.142578,0.858154,3.379822,2.517700,1.663208,22.265625,25.634766,-3.662109
1039367006,-0.475098,-0.140625,0.861572,3.349304,2.830505,1.502991,22.265625,25.634766,-3.662109
1042850496,-0.479980,-0.143311,0.856201,3.326416,2.525330,1.670837,22.045898,25.561523,-4.174805
1045816652,-0.484131,-0.139893,0.848389,2.914429,2.563477,1.342773,22.045898,25.561523,-4.174805
1048312244,-0.483643,-0.139404,0.847168,2.624512,2.479553,1.441956,22.045898,25.561523,-4.174805
1050825887,-0.494141,-0.136475,0.847168,2.380371,2.487183,1.274109,22.045898,25.561523,-4.174805
1053318607,-0.489990,-0.142578,0.839600,2.372742,2.395630,1.548767,22.045898,25.561523,-4.174805
1055822404,-0.489746,-0.142822,0.833008,2.098083,2.143860,1.617432,22.045898,25.561523,-4.174805
1058317996,-0.489258,-0.146484,0.834229,1.914978,1.678467,1.571655,22.045898,25.561523,-4.174805
1060814408,-0.488770,-0.148682,0.825684,1.495361,1.281738,1.579285,21.826172,24.609375,-4.248047
1063393282,-0.487549,-0.151611,0.834473,1.213074,1.075745,1.960754,21.826172,24.609375,-4.248047
1066452567,-0.484619,-0.156006,0.828369,1.060486,0.671387,2.136230,21.826172,24.609375,-4.248047
1069396159,-0.479492,-0.156250,0.833984,0.747681,0.411987,2.227783,21.826172,24.609375,-4.248047
1072372572,-0.479492,-0.158203,0.833496,0.717163,-0.183105,2.349854,21.826172,24.609375,-4.248047
1074862830,-0.478760,-0.167480,0.841064,0.427246,-0.617981,2.593994,21.826172,24.609375,-4.248047
1077446627,-0.480713,-0.168701,0.844482,0.328064,-0.953674,3.143311,21.826172,24.609375,-4.248047
1080997810,-0.474854,-0.169434,0.846436,0.274658,-0.778198,3.074646,21.826172,24.609375,-4.248047
1083971350,-0.467529,-0.171875,0.855469,0.518799,-1.113892,3.295898,22.045898,25.708008,-3.881836
1086928481,-0.466553,-0.176270,0.859619,0.617981,-1.060486,3.662109,22.045898,25.708008,-3.881836
1090019766,-0.465820,-0.172119,0.856445,0.579834,-1.541138,3.715515,22.045898,25.708008,-3.881836
1092971153,-0.467041,-0.172363,0.868652,0.930786,-1.274109,3.837585,22.045898,25.708008,-3.881836
1095927463,-0.462158,-0.169434,0.872803,0.831604,-1.289368,3.845215,22.045898,25.708008,-3.881836
1099059773,-0.459229,-0.165771,0.880127,1.281738,-1.388550,4.005432,22.045898,25.708008,-3.881836
1101973827,-0.461670,-0.161865,0.877197,1.190186,-1.121521,3.852844,21.752930,24.975586,-4.174805
1104484598,-0.461182,-0.159424,0.884766,1.731873,-0.534058,4.020691,21.752930,24.975586,-4.174805
1107563165,-0.461914,-0.158203,0.880859,1.693726,-0.846863,3.707886,21.752930,24.975586,-4.174805
1111072911,-0.463623,-0.150879,0.884521,1.991272,-0.518799,3.356934,21.752930,24.975586,-4.174805
1114036606,-0.466797,-0.145996,0.887207,2.182007,-0.091553,3.166199,21.752930,24.975586,-4.174805
1117106557,-0.474609,-0.135986,0.884521,2.601624,0.030518,2.937317,21.752930,24.975586,-4.174805
1120061226,-0.496582,-0.113281,0.884766,1.213074,-0.564575,2.983093,21.752930,24.975586,-4.174805
1123026972,-0.478516,-0.116943,0.877686,1.037598,-0.350952,1.869202,21.313477,25.415039,-4.028320
1125527487,-0.463135,-0.131348,0.873779,1.884460,0.068665,2.075195,21.313477,25.415039,-4.028320
1128028002,-0.459229,-0.123535,0.868164,2.433777,-0.175476,1.739502,21.313477,25.415039,-4.028320
1130560927,-0.460938,-0.123535,0.862549,2.014160,0.144958,1.419067,21.313477,25.415039,-4.028320
1133554981,-0.461182,-0.129883,0.864258,2.929688,0.518799,1.113892,21.313477,25.415039,-4.028320
1136018573,-0.466797,-0.127441,0.859375,2.716064,0.511169,0.526428,21.313477,25.415039,-4.028320
1138640524,-0.470947,-0.132324,0.860107,3.128052,0.259399,0.015259,21.313477,25.415039,-4.028320
1141638680,-0.476563,-0.134033,0.859131,3.105164,0.518799,-0.259399,21.972656,25.634766,-4.248047
1144642169,-0.478516,-0.125244,0.863037,3.387451,0.350952,-0.312805,21.972656,25.634766,-4.248047
1147614480,-0.481445,-0.126465,0.863037,3.387451,0.465393,-1.014709,21.972656,25.634766,-4.248047
1150061661,-0.479736,-0.122803,0.860840,3.471375,0.099182,-1.144409,21.972656,25.634766,-4.248047
1152615920,-0.481689,-0.125732,0.863281,3.150940,-0.061035,-1.457214,21.972656,25.634766,-4.248047
1155079511,-0.474365,-0.127686,0.865234,2.639771,-0.106812,-1.556396,21.972656,25.634766,-4.248047
1157618590,-0.471924,-0.126953,0.864014,2.670288,-0.198364,-1.327515,21.972656,25.634766,-4.248047
1160156439,-0.469971,-0.133301,0.866455,2.357483,-0.396729,-1.373291,21.899414,25.561523,-4.028320
1163131621,-0.464600,-0.137695,0.867432,1.892090,-0.526428,-1.502991,21.899414,25.561523,-4.028320
1165630084,-0.460693,-0.144287,0.862549,1.663208,-0.755310,-1.205444,21.899414,25.561523,-4.028320
1168139625,-0.462402,-0.149658,0.858398,1.182556,-0.587463,-0.839233,21.899414,25.561523,-4.028320
1170677883,-0.464111,-0.153564,0.860352,1.365662,-0.709534,-0.831604,21.313477,25.122070,-3.588867
1173634193,-0.462158,-0.154785,0.865723,1.121521,-0.999451,-0.633240,21.313477,25.122070,-3.588867
1176683632,-0.458496,-0.160400,0.856689,0.770569,-0.854492,-0.373840,21.313477,25.122070,-3.588867
1179265377,-0.458496,-0.165527,0.860107,1.235962,-0.968933,0.099182,21.313477,25.122070,-3.588867
1182255739,-0.457520,-0.168457,0.860107,0.335693,-0.724792,0.114441,21.899414,25.415039,-3.881836
1185280562,-0.461670,-0.169922,0.851318,0.526428,-0.747681,0.747681,21.899414,25.415039,-3.881836
1188276667,-0.452881,-0.174072,0.857666,0.274658,-0.885010,0.892639,21.899414,25.415039,-3.881836
1191252669,-0.454834,-0.172852,0.859131,0.328064,-0.785828,1.083374,22.412109,25.195313,-4.101563
1194203236,-0.455811,-0.170410,0.872803,0.762939,-0.755310,1.441956,22.412109,25.195313,-4.101563
1196739853,-0.454102,-0.171631,0.865234,0.793457,-0.396729,1.564026,22.412109,25.195313,-4.101563
1199748266,-0.454590,-0.166992,0.873779,1.121521,-0.854492,1.754761,22.412109,25.195313,-4.101563
1202749294,-0.453857,-0.163818,0.872314,1.167297,-0.427246,1.510620,21.679688,25.048828,-3.955078
1205803245,-0.455566,-0.162109,0.876221,1.205444,-0.267029,1.510620,21.679688,25.048828,-3.955078
1208801402,-0.457275,-0.156006,0.871338,1.625061,-0.244141,1.747131,21.679688,25.048828,-3.955078
1211808994,-0.455566,-0.150146,0.882080,1.502991,-0.053406,1.342773,21.679688,25.634766,-4.394531
1214781714,-0.461182,-0.148926,0.874023,2.212524,0.358582,1.228333,21.679688,25.634766,-4.394531
1217279357,-0.463379,-0.145996,0.884033,2.044678,0.305176,0.846863,21.679688,25.634766,-4.394531
1219813513,-0.460693,-0.143799,0.881104,2.418518,0.724792,0.671387,21.826172,25.341797,-3.955078
1222828080,-0.462891,-0.140869,0.879639,2.746582,0.946045,0.602722,21.826172,25.341797,-3.955078
1225778236,-0.465332,-0.136719,0.883789,3.005981,1.045227,0.312805,21.826172,25.341797,-3.955078
1228278751,-0.463867,-0.134277,0.876465,2.761841,1.342773,0.038147,21.826172,25.341797,-3.955078
1231333112,-0.465820,-0.134521,0.876709,3.082275,1.045227,-0.579834,22.338867,25.854492,-4.174805
1234287371,-0.472168,-0.131592,0.877197,3.128052,1.602173,-0.518799,22.338867,25.854492,-4.174805
1236825630,-0.471191,-0.131348,0.866943,3.051758,1.296997,-1.083374,22.338867,25.854492,-4.174805
1239830350,-0.472656,-0.132324,0.864746,2.983093,1.808167,-1.152039,22.119141,24.755859,-4.174805
1242331275,-0.472412,-0.136963,0.868652,3.448486,1.312256,-1.350403,22.119141,24.755859,-3.955078
1244879790,-0.475342,-0.136475,0.864746,3.189087,1.586914,-1.274109,22.119141,24.755859,-3.955078
1247378664,-0.480225,-0.136719,0.857666,3.120422,1.647949,-1.495361,22.119141,24.755859,-3.955078
1249876307,-0.478760,-0.141846,0.857422,3.067017,1.266479,-1.731873,21.606445,24.975586,-4.028320
1252394873,-0.482422,-0.145508,0.854492,3.402710,1.411438,-1.556396,21.606445,24.975586,-4.028320
1255422568,-0.480957,-0.147705,0.853516,2.937317,1.014709,-1.541138,21.606445,24.975586,-4.028320
1258379288,-0.485840,-0.147705,0.854004,2.807617,1.007080,-1.617432,21.606445,24.975586,-4.028320
1260885547,-0.480713,-0.149170,0.845459,2.769470,0.442505,-1.602173,21.606445,25.561523,-4.174805
1263384831,-0.475586,-0.149170,0.847900,2.586365,0.724792,-1.113892,21.606445,25.561523,-4.174805
1266458885,-0.477783,-0.154785,0.845947,2.784729,0.297546,-1.296997,21.606445,25.561523,-4.174805
1269464426,-0.479980,-0.157227,0.849365,2.624512,0.221252,-1.022339,21.606445,25.561523,-4.174805
1272527813,-0.477295,-0.158203,0.852539,2.357483,-0.068665,-0.991821,21.386719,25.927734,-4.101563
1275486174,-0.471191,-0.158691,0.856689,2.601624,-0.236511,-0.640869,21.386719,25.927734,-4.101563
1278535613,-0.472168,-0.159668,0.848633,2.388000,-0.534058,-0.587463,21.386719,25.927734,-4.101563
1281978077,-0.471191,-0.161621,0.856934,2.220154,-0.877380,-0.457764,21.386719,25.927734,-4.101563
1285038182,-0.463867,-0.160889,0.863281,2.342224,-0.892639,0.022888,21.386719,25.927734,-4.101563
1288026492,-0.468262,-0.160156,0.860596,2.311707,-0.785828,-0.099182,21.386719,25.927734,-4.101563
1290995110,-0.465332,-0.159424,0.863281,2.487183,-1.045227,0.137329,22.412109,25.195313,-4.101563
1293523522,-0.463623,-0.162109,0.869141,2.334595,-1.136780,0.328064,22.412109,25.195313,-4.101563
1296461371,-0.466553,-0.161133,0.867920,2.479553,-0.907898,0.442505,22.412109,25.195313,-4.101563
1299031219,-0.460205,-0.155762,0.869385,2.235413,-1.220703,0.244141,22.412109,25.195313,-4.101563
1301969478,-0.474854,-0.143066,0.881104,1.899719,-1.129150,0.679016,22.412109,25.195313,-4.101563
1305006609,-0.471680,-0.135010,0.880615,1.258850,-1.472473,0.694275,22.412109,25.195313,-4.101563
1307515329,-0.468018,-0.146729,0.870605,0.717163,-1.525879,0.732422,22.412109,25.195313,-4.101563
1310006408,-0.457275,-0.145996,0.870117,1.525879,-1.564026,0.923157,22.558594,25.048828,-3.515625
1312568051,-0.447754,-0.145508,0.869141,1.296997,-1.502991,0.732422,22.558594,25.048828,-3.515625
1315133386,-0.447510,-0.148438,0.869141,1.602173,-1.106262,0.999451,22.558594,25.048828,-3.515625
1318642312,-0.451904,-0.144775,0.870850,1.686096,-0.968933,0.709534,22.558594,25.048828,-3.515625
1321582622,-0.458740,-0.144775,0.873047,2.014160,-0.762939,0.328064,22.558594,25.048828,-3.515625
1324639035,-0.456543,-0.148193,0.880859,2.243042,-0.495911,0.312805,22.558594,25.048828,-3.515625
1327650320,-0.461182,-0.144287,0.872070,2.044678,-0.656128,0.091553,22.558594,25.048828,-3.515625
1330610322,-0.461914,-0.143311,0.875732,2.494812,-0.404358,0.114441,21.972656,25.488281,-4.248047
1334150017,-0.457275,-0.136719,0.883301,2.281189,-0.122070,0.038147,21.972656,25.488281,-4.248047
1337073097,-0.459229,-0.139160,0.885742,2.357483,-0.152588,-0.625610,21.972656,25.488281,-4.248047
1339614227,-0.458008,-0.138916,0.882813,2.227783,0.144958,-0.244141,21.972656,25.488281,-4.248047
1342618127,-0.464111,-0.136963,0.888672,2.067566,0.160217,-0.640869,21.972656,25.488281,-4.248047
1345119052,-0.458984,-0.141602,0.886475,2.243042,0.152588,-0.526428,21.972656,25.488281,-4.248047
1347628592,-0.459229,-0.143066,0.877441,1.998901,0.335693,-0.679016,21.972656,25.488281,-4.248047
1350122133,-0.459717,-0.145264,0.879395,1.617432,0.274658,-0.816345,22.119141,25.488281,-3.808594
1353126853,-0.466064,-0.150146,0.873535,1.754761,0.320435,-0.686646,22.119141,25.488281,-3.808594
1356132394,-0.469238,-0.151123,0.871582,1.617432,0.534058,-0.816345,22.119141,25.488281,-3.808594
1359164602,-0.464355,-0.155029,0.860596,1.731873,0.602722,-0.785828,22.119141,25.488281,-3.808594
1362134040,-0.468994,-0.158447,0.860840,1.502991,0.488281,-0.488281,22.119141,25.488281,-3.808594
1364630453,-0.478027,-0.159668,0.860107,1.716614,0.419617,-0.610352,22.119141,25.488281,-3.808594
1367226967,-0.476318,-0.163086,0.860107,2.059937,0.488281,-0.602722,22.119141,25.488281,-3.808594
1370214047,-0.474121,-0.166016,0.853271,1.762390,0.129700,-0.366211,22.558594,25.488281,-3.955078
1373239690,-0.478271,-0.166992,0.848877,2.433777,0.236511,-0.183105,22.558594,25.488281,-3.955078
1376704719,-0.475830,-0.164551,0.852295,2.136230,-0.030518,-0.328064,22.558594,25.488281,-3.955078
1379209336,-0.475586,-0.166748,0.850342,2.311707,-0.343323,-0.144958,22.558594,25.488281,-3.955078
1381756620,-0.470459,-0.161865,0.843994,2.220154,-0.564575,-0.312805,22.558594,25.488281,-3.955078
1384749033,-0.466553,-0.157959,0.849854,2.571106,-0.709534,-0.137329,22.558594,25.488281,-3.955078
1387714779,-0.469238,-0.162109,0.856934,2.136230,-1.037598,-0.282288,22.558594,25.488281,-3.955078
1390713756,-0.463623,-0.165039,0.860596,2.479553,-0.968933,0.022888,21.533203,25.341797,-3.662109
1393269656,-0.460938,-0.159424,0.860352,2.380371,-1.182556,-0.038147,21.533203,25.341797,-3.662109
1396245248,-0.459229,-0.161865,0.865723,2.235413,-1.480103,0.213623,21.533203,25.341797,-3.662109
1398745352,-0.458008,-0.159668,0.869629,2.456665,-1.281738,0.167847,21.533203,25.341797,-3.662109
1401736124,-0.459229,-0.158447,0.872803,2.357483,-1.533508,0.328064,21.533203,25.341797,-3.662109
1404790896,-0.459961,-0.158203,0.880615,2.204895,-1.075745,0.328064,21.533203,25.341797,-3.662109
1407290590,-0.460693,-0.159180,0.879883,2.555847,-1.167297,0.572205,21.533203,25.341797,-3.662109
1409867823,-0.456299,-0.154785,0.885254,2.532959,-1.060486,0.366211,21.826172,25.048828,-4.101563
1412766697,-0.451416,-0.155762,0.882324,2.609253,-0.808716,0.541687,21.826172,25.048828,-4.101563
1415855930,-0.455078,-0.156250,0.884033,2.540588,-0.648499,0.442505,21.826172,25.048828,-4.101563
1418863112,-0.453857,-0.148193,0.881592,2.510071,-0.480652,0.625610,21.826172,25.048828,-4.101563
1421799320,-0.456299,-0.145996,0.883789,2.235413,-0.282288,0.953674,21.826172,25.048828,-4.101563
1424337168,-0.457764,-0.142090,0.884033,2.075195,0.244141,0.892639,21.826172,25.048828,-4.101563
1426911529,-0.456055,-0.143799,0.888672,1.914978,0.007629,1.106262,21.826172,25.048828,-4.101563
1429915839,-0.461914,-0.140869,0.875977,1.815796,0.160217,0.892639,21.972656,25.488281,-4.541016
1432913585,-0.460449,-0.139404,0.882324,1.754761,0.686646,0.923157,21.972656,25.488281,-4.541016
1435924870,-0.465820,-0.137207,0.873291,1.487732,0.907898,0.717163,21.972656,25.488281,-4.541016
1438840154,-0.472900,-0.133545,0.880615,1.739502,0.572205,0.579834,21.972656,25.488281,-4.541016
1441904362,-0.470703,-0.131348,0.868652,1.296997,0.770569,0.358582,21.972656,25.488281,-4.541016
1444880775,-0.480957,-0.135986,0.869385,1.060486,0.381470,0.160217,21.972656,25.488281,-4.541016
1447379649,-0.474121,-0.132813,0.867188,1.068115,0.328064,0.289917,21.972656,25.488281,-4.541016
1449912164,-0.478271,-0.137939,0.864746,0.869751,0.259399,-0.068665,21.899414,25.268555,-3.735352
1452882833,-0.475342,-0.140869,0.861328,0.694275,0.297546,-0.061035,21.899414,25.268555,-3.735352
1455391142,-0.472412,-0.139404,0.856689,0.419617,-0.061035,-0.076294,21.899414,25.268555,-3.735352
1457887144,-0.471924,-0.144775,0.854248,0.885010,-0.244141,-0.061035,21.899414,25.268555,-3.735352
1460439352,-0.469971,-0.147705,0.860352,0.366211,-0.679016,0.251770,21.899414,25.268555,-3.735352
1463025200,-0.464600,-0.150146,0.851074,0.534058,-0.709534,-0.091553,21.899414,25.268555,-3.735352
1465939664,-0.454834,-0.151855,0.850586,0.396729,-1.007080,0.183105,21.899414,25.268555,-3.735352
1468438538,-0.454102,-0.152832,0.854004,-0.305176,-0.923157,0.053406,21.606445,25.122070,-4.467773
1471437104,-0.447510,-0.159668,0.855469,-0.053406,-1.548767,0.396729,21.606445,25.122070,-4.467773
1473950337,-0.442139,-0.159424,0.855469,-0.541687,-1.594543,0.648499,21.606445,25.122070,-4.467773
1476994442,-0.433838,-0.166260,0.864746,-0.457764,-1.510620,0.801086,21.606445,25.122070,-4.467773
1479540906,-0.437988,-0.174072,0.865967,-0.831604,-1.800537,0.991821,21.606445,25.122070,-4.467773
1482474242,-0.431152,-0.172363,0.869629,-0.923157,-1.884460,1.472473,21.606445,25.122070,-4.467773
1486083270,-0.426025,-0.172119,0.867676,-0.518799,-1.701355,1.937866,21.606445,25.122070,-4.467773
1489078555,-0.427002,-0.166748,0.881348,-1.144409,-1.335144,2.418518,21.899414,25.268555,-3.735352
1492072198,-0.427734,-0.168945,0.892090,-1.037598,-1.327515,2.204895,21.899414,25.268555,-3.735352
1494974765,-0.431152,-0.168213,0.887451,-1.266479,-0.823975,2.708435,21.899414,25.268555,-3.735352
1497530664,-0.448975,-0.147217,0.888672,-1.930237,-1.182556,3.402710,21.899414,25.268555,-3.735352
1500022974,-0.443115,-0.153076,0.896240,-2.693176,-0.724792,3.112793,21.899414,25.268555,-3.735352
1503112617,-0.458008,-0.156494,0.887451,-2.273560,-0.740051,3.570557,21.899414,25.268555,-3.735352
1506082466,-0.432129,-0.137939,0.869385,-2.197266,-0.770569,3.288269,21.899414,25.268555,-3.735352
1509163494,-0.438232,-0.161621,0.869873,-1.968384,-0.038147,3.448486,21.826172,25.048828,-3.808594
1512034061,-0.441895,-0.146484,0.868164,-1.251221,0.000000,3.593445,21.826172,25.048828,-3.808594
1515081448,-0.446777,-0.146729,0.870117,-1.251221,0.167847,2.685547,21.826172,25.048828,-3.808594
1517579091,-0.462891,-0.147705,0.864502,-0.503540,0.335693,2.914429,21.826172,25.048828,-3.808594
1520582991,-0.526123,-0.123291,0.859619,-0.167847,0.434875,2.883911,21.826172,25.048828,-3.808594
1523670173,-0.529297,-0.068115,0.826660,0.473022,-0.946045,0.930786,21.826172,25.048828,-3.808594
1526667509,-0.478516,-0.076416,0.829346,-1.022339,-0.984192,-0.877380,21.826172,25.048828,-3.808594
1529649255,-0.489014,-0.147217,0.834229,0.320435,-1.167297,0.175476,22.558594,25.048828,-4.101563
1532179308,-0.468506,-0.119141,0.834961,0.419617,-2.288818,-1.197815,22.558594,25.048828,-4.101563
1535643106,-0.451660,-0.148682,0.844727,-0.198364,-2.098083,-2.052307,22.558594,25.048828,-4.101563
1538154287,-0.446045,-0.171631,0.864258,0.213623,-2.128601,-0.602722,22.558594,25.048828,-4.101563
1541211520,-0.466309,-0.155518,0.870850,-0.877380,-2.143860,-1.235962,22.558594,25.048828,-4.101563
1544130908,-0.469238,-0.177490,0.875000,-0.755310,-2.487183,-0.129700,22.558594,25.048828,-4.101563
1547199628,-0.462646,-0.166504,0.885010,-1.899719,-1.991272,0.068665,22.558594,25.048828,-4.101563
1550191220,-0.486084,-0.168701,0.891113,-3.883362,-2.281189,1.899719,21.972656,25.195313,-3.955078
1553203735,-0.465088,-0.183838,0.889160,-5.332947,-2.479553,3.120422,21.972656,25.195313,-3.955078
1556185892,-0.462158,-0.197266,0.886963,-4.989624,-2.609253,3.593445,21.972656,25.195313,-3.955078
1559184048,-0.462891,-0.181152,0.885986,-4.455566,-2.243042,4.463196,21.972656,25.195313,-4.248047
1561681691,-0.458496,-0.188232,0.876465,-3.845215,-2.182007,4.013062,21.972656,25.195313,-4.248047
1564184668,-0.461182,-0.192139,0.874756,-2.983093,-1.625061,4.234314,21.972656,25.195313,-4.248047
1566684772,-0.451172,-0.193848,0.875977,-2.029419,-1.548767,3.646851,21.972656,25.195313,-4.248047
1569185287,-0.445313,-0.200684,0.878418,-0.587463,-1.014709,3.555298,22.265625,25.488281,-4.101563
1571696058,-0.446045,-0.182129,0.875000,0.480652,-0.671387,3.158569,22.265625,25.488281,-4.101563
1574707343,-0.446777,-0.177490,0.885498,0.564575,-0.328064,2.548218,22.265625,25.488281,-4.101563
1577204986,-0.452148,-0.177002,0.886230,1.335144,-0.312805,2.593994,22.265625,25.488281,-4.101563
1579709193,-0.445068,-0.164551,0.891357,1.525879,-0.152588,2.174377,22.192383,25.268555,-3.735352
1582216682,-0.445313,-0.160645,0.895752,1.365662,-0.007629,1.869202,22.192383,25.268555,-3.735352
1584781608,-0.442383,-0.153320,0.888672,2.037048,0.404358,1.708984,22.192383,25.268555,-3.735352
1587773200,-0.440918,-0.154297,0.889404,2.265930,0.373840,1.243591,22.192383,25.268555,-3.735352
1590839459,-0.443848,-0.153809,0.891113,2.410889,0.923157,0.930786,21.899414,24.682617,-4.174805
1593840897,-0.441650,-0.157227,0.894531,2.906799,1.159668,0.465393,21.899414,24.682617,-4.174805
1596887464,-0.444580,-0.162354,0.903809,3.074646,1.556396,0.061035,21.899414,24.682617,-4.174805
1599884799,-0.448730,-0.159668,0.903320,3.334045,2.098083,0.122070,22.119141,25.195313,-3.808594
1602852597,-0.449707,-0.163574,0.891846,3.623962,2.059937,-0.099182,22.119141,25.195313,-3.808594
1606364805,-0.452881,-0.166504,0.889648,3.860474,2.502441,-0.076294,22.119141,25.195313,-3.808594
1609346551,-0.461670,-0.168945,0.885010,3.684998,2.677917,-0.343323,22.485352,25.268555,-3.881836
1612338553,-0.469971,-0.162598,0.870850,4.234314,3.097534,-0.076294,22.485352,25.268555,-3.881836
1614894042,-0.474854,-0.165039,0.868164,4.066467,3.135681,-0.183105,22.485352,25.268555,-3.881836
1617893430,-0.477051,-0.166504,0.862549,4.776001,2.906799,-0.038147,22.485352,25.268555,-3.881836
1620901432,-0.476807,-0.168457,0.857910,4.470825,2.655029,-0.076294,21.972656,25.048828,-3.955078
1623896717,-0.480469,-0.161133,0.854004,4.592896,2.899170,0.083923,21.972656,25.048828,-3.955078
1626898975,-0.482666,-0.166260,0.845459,4.318237,2.182007,-0.061035,21.972656,25.048828,-3.955078
1629888516,-0.487305,-0.161377,0.843018,4.516602,2.220154,0.404358,22.265625,26.074219,-3.955078
1632841544,-0.489990,-0.164551,0.835205,4.188538,1.625061,0.373840,22.265625,26.074219,-3.955078
1635374880,-0.489258,-0.164307,0.838623,4.035950,1.350403,0.373840,22.265625,26.074219,-3.955078
1637879908,-0.487305,-0.159912,0.837646,4.241943,0.755310,0.518799,22.045898,25.561523,-4.174805
1640387807,-0.490723,-0.164063,0.832520,4.280090,0.358582,0.457764,22.045898,25.561523,-4.174805
1642880937,-0.485352,-0.166748,0.824219,4.508972,-0.221252,0.450134,22.045898,25.561523,-4.174805
1645381452,-0.486084,-0.164307,0.834961,4.302979,-0.366211,0.434875,22.045898,25.561523,-4.174805
1647929557,-0.475098,-0.161865,0.840820,4.539490,-0.999451,0.602722,22.045898,25.561523,-4.174805
1650438687,-0.474365,-0.166504,0.840576,4.615784,-1.289368,0.549316,22.045898,25.561523,-4.174805
1652938792,-0.474609,-0.166016,0.851074,4.714966,-1.480103,0.755310,22.045898,25.561523,-4.174805
1655431101,-0.467773,-0.167480,0.845703,4.714966,-1.762390,0.869751,22.045898,25.561523,-4.174805
1657929565,-0.465332,-0.170410,0.856934,4.783630,-1.792908,0.717163,21.606445,25.268555,-3.442383
1660430080,-0.464844,-0.166016,0.855225,4.859924,-1.907349,0.885010,21.606445,25.268555,-3.442383
1662973261,-0.461670,-0.164551,0.859131,4.821777,-2.044678,1.243591,21.606445,25.268555,-3.442383
1665461058,-0.460205,-0.166504,0.859375,4.806519,-2.349854,1.174927,21.606445,25.268555,-3.442383
1667994804,-0.455566,-0.162109,0.877441,4.898071,-2.037048,1.319885,21.606445,25.268555,-3.442383
1671047524,-0.455566,-0.158203,0.878906,4.791260,-1.899719,1.312256,21.606445,25.268555,-3.442383
1674517066,-0.452637,-0.153809,0.876953,5.142212,-2.044678,1.510620,21.606445,25.268555,-3.442383
1677022093,-0.450928,-0.150879,0.890381,5.027771,-1.380920,1.434326,21.606445,25.268555,-3.442383
1679973481,-0.451172,-0.145020,0.886475,5.172729,-0.930786,1.266479,22.631836,25.268555,-3.735352
1682492457,-0.450684,-0.143066,0.898926,5.050659,-0.862122,1.281738,22.631836,25.268555,-3.735352
1684975741,-0.450439,-0.137451,0.892090,5.325317,-0.625610,0.999451,22.631836,25.268555,-3.735352
1687511128,-0.449463,-0.134033,0.887207,4.989624,-0.137329,0.938416,22.631836,25.268555,-3.735352
1689989078,-0.451660,-0.133545,0.887695,4.890442,0.198364,1.129150,22.631836,25.268555,-3.735352
1693008158,-0.456299,-0.129639,0.893311,4.638672,0.457764,0.846863,22.631836,25.268555,-3.735352
1695552980,-0.456055,-0.123047,0.889404,4.745483,0.328064,0.808716,22.631836,25.268555,-3.735352
1698080572,-0.457031,-0.121094,0.886230,4.386902,0.793457,0.358582,22.631836,24.975586,-4.028320
1701074626,-0.459961,-0.115967,0.879883,4.455566,0.869751,0.373840,22.631836,24.975586,-4.028320
1703571449,-0.461426,-0.116211,0.880371,3.845215,1.228333,0.274658,22.631836,24.975586,-4.028320
1706594631,-0.467285,-0.114014,0.873291,4.074097,1.052856,-0.106812,22.631836,24.975586,-4.028320
1709552992,-0.467773,-0.113037,0.867676,3.295898,1.075745,-0.236511,22.631836,24.975586,-4.028320
1712120789,-0.471436,-0.117432,0.865967,3.433228,0.816345,-0.579834,22.631836,24.975586,-4.028320
1715139868,-0.474854,-0.114990,0.866699,3.005981,0.930786,-0.762939,22.631836,24.975586,-4.028320
1718186435,-0.479004,-0.117432,0.860596,2.815247,0.617981,-0.633240,21.533203,25.048828,-3.808594
1721678540,-0.477783,-0.119873,0.851318,2.601624,0.053406,-0.579834,21.533203,25.048828,-3.808594
1724639363,-0.482910,-0.119141,0.852539,2.166748,0.152588,-0.579834,21.533203,25.048828,-3.808594
1727150545,-0.481201,-0.120850,0.846436,1.670837,-0.251770,-0.839233,21.533203,25.048828,-3.808594
1729598547,-0.483398,-0.128906,0.842041,1.327515,-0.694275,-0.679016,21.533203,25.048828,-3.808594
1732157728,-0.478760,-0.136230,0.837891,1.281738,-1.029968,-0.854492,21.533203,25.048828,-3.808594
1735177218,-0.474609,-0.135986,0.849609,1.380920,-1.365662,-0.854492,21.533203,25.048828,-3.808594
1738155272,-0.472900,-0.139648,0.855957,1.205444,-1.449585,-0.740051,22.192383,25.122070,-3.881836
1740657017,-0.466797,-0.145508,0.853516,1.228333,-1.983643,-0.694275,22.192383,25.122070,-3.881836
1743155891,-0.465576,-0.151367,0.855957,1.190186,-1.861572,-0.862122,22.192383,25.122070,-3.881836
1745699483,-0.460938,-0.151855,0.872559,1.045227,-2.296448,-0.755310,22.192383,25.122070,-3.881836
1748211895,-0.457520,-0.152100,0.865967,1.098633,-2.456665,-0.648499,22.192383,25.122070,-3.881836
1751262154,-0.451660,-0.155518,0.870605,0.923157,-2.326965,-0.556946,22.192383,25.122070,-3.881836
1754208618,-0.442627,-0.159180,0.879395,0.717163,-2.517700,-0.358582,22.192383,25.122070,-3.881836
1757256416,-0.440918,-0.157959,0.879883,0.762939,-2.655029,-0.076294,22.192383,25.122070,-3.881836
1760254572,-0.434082,-0.160400,0.890869,0.999451,-2.105713,0.114441,22.412109,24.902344,-3.662109
1763223190,-0.435547,-0.160156,0.893066,0.373840,-2.449036,0.274658,22.412109,24.902344,-3.662109
1766229141,-0.429932,-0.163818,0.899170,0.457764,-1.770020,0.595093,22.412109,24.902344,-3.662109
1768794476,-0.426270,-0.163818,0.900391,0.373840,-1.358032,0.976563,22.412109,24.902344,-3.662109
1771740120,-0.429688,-0.159912,0.905273,0.389099,-0.991821,1.022339,22.412109,24.902344,-3.662109
1774231609,-0.424316,-0.160156,0.912598,0.373840,-0.976563,1.243591,22.412109,24.902344,-3.662109
1776773970,-0.427734,-0.160645,0.916260,0.656128,-0.320435,1.235962,22.412109,24.902344,-3.662109
1779792639,-0.429688,-0.152832,0.913086,0.305176,0.297546,1.487732,22.192383,25.122070,-4.028320
1782781360,-0.432861,-0.151367,0.914795,0.015259,0.488281,1.243591,22.192383,25.122070,-4.028320
1785279823,-0.431885,-0.146973,0.913086,0.312805,1.037598,1.426697,22.192383,25.122070,-4.028320
1787777466,-0.433105,-0.148193,0.919189,0.030518,1.441956,1.228333,22.192383,25.122070,-4.028320
1790275520,-0.436768,-0.141602,0.913086,0.144958,1.625061,1.548767,22.192383,25.122070,-4.028320
1792781778,-0.432373,-0.143799,0.907227,-0.289917,2.021790,1.274109,22.192383,25.122070,-4.028320
1795329062,-0.439941,-0.137939,0.904785,-0.099182,2.174377,1.197815,22.192383,25.122070,-4.028320
1797832039,-0.441162,-0.144043,0.907227,0.045776,2.632141,1.007080,22.485352,24.975586,-4.321289
1800329272,-0.447266,-0.141602,0.902832,-0.106812,2.494812,1.098633,22.485352,24.975586,-4.321289
1803379120,-0.448730,-0.138672,0.897705,0.045776,2.998352,0.831604,22.485352,24.975586,-4.321289
1806422815,-0.450928,-0.137695,0.891846,-0.129700,2.891541,0.648499,22.485352,24.975586,-4.321289
1809407023,-0.453369,-0.140625,0.879883,-0.083923,3.295898,0.404358,22.485352,24.975586,-4.321289
1812339948,-0.461426,-0.142334,0.877197,-0.007629,3.181458,0.122070,22.485352,24.975586,-4.321289
1815415233,-0.461426,-0.147217,0.864990,-0.030518,3.326416,0.061035,22.485352,24.975586,-4.321289
1818435133,-0.459717,-0.145020,0.862793,0.000000,3.082275,-0.022888,22.412109,25.195313,-4.101563
1821434930,-0.465332,-0.149414,0.855225,0.015259,3.059387,-0.076294,22.412109,25.195313,-4.101563
1824410932,-0.465820,-0.156006,0.856445,0.175476,2.708435,-0.183105,22.412109,25.195313,-4.101563
1826906934,-0.463867,-0.158203,0.843262,0.160217,2.548218,-0.465393,22.412109,25.195313,-4.101563
1829912065,-0.468262,-0.166260,0.843506,0.366211,2.418518,-0.312805,22.412109,25.195313,-4.101563
1832423247,-0.464844,-0.168213,0.846191,0.297546,2.120972,-0.640869,22.412109,25.195313,-4.101563
1834944685,-0.467529,-0.169189,0.844727,0.228882,1.838684,-0.419617,22.412109,25.195313,-4.101563
1838025302,-0.461914,-0.174561,0.838623,0.312805,1.434326,-0.396729,21.606445,24.829102,-3.735352
1841016074,-0.462891,-0.181396,0.850586,0.701904,1.502991,-0.175476,21.606445,24.829102,-3.735352
1844525821,-0.460938,-0.181152,0.850342,0.640869,0.801086,0.053406,21.606445,24.829102,-3.735352
1847530951,-0.456299,-0.190186,0.862061,0.732422,0.373840,0.022888,21.606445,24.829102,-3.735352
1850525415,-0.456055,-0.189697,0.861572,1.296997,0.221252,0.274658,21.606445,24.829102,-3.735352
1853455879,-0.453369,-0.193359,0.873779,1.304626,0.259399,0.526428,21.606445,24.829102,-3.735352
1856026548,-0.451904,-0.193359,0.874023,1.548767,0.061035,1.068115,21.606445,24.829102,-3.735352
1859073935,-0.453613,-0.191895,0.874268,1.678467,0.205994,0.900269,22.119141,25.048828,-4.101563
1861999476,-0.451416,-0.191650,0.885498,1.838684,0.457764,1.342773,22.119141,25.048828,-4.101563
1865000914,-0.448730,-0.190186,0.876953,2.403259,0.289917,1.586914,22.119141,25.048828,-4.101563
1868588199,-0.445557,-0.189941,0.882813,2.876282,0.770569,1.739502,22.119141,25.048828,-4.101563
1871509227,-0.443848,-0.178711,0.880371,3.128052,0.640869,1.426697,22.119141,25.048828,-4.101563
1874510256,-0.443604,-0.178223,0.875977,3.334045,1.060486,1.968384,22.119141,25.048828,-4.101563
1877016924,-0.442383,-0.175049,0.884033,3.349304,1.205444,1.770020,22.265625,25.488281,-3.662109
1879513747,-0.442871,-0.175293,0.877441,3.669739,1.472473,2.037048,22.265625,25.488281,-3.662109
1882020826,-0.443359,-0.167480,0.882080,3.982544,1.823425,1.884460,22.265625,25.488281,-3.662109
1884514366,-0.445557,-0.167236,0.875977,4.005432,1.815796,1.678467,22.265625,25.488281,-3.662109
1887066574,-0.447021,-0.159912,0.880615,4.249573,2.098083,1.731873,22.265625,25.488281,-3.662109
1889559704,-0.447510,-0.158691,0.879395,4.074097,2.204895,1.686096,22.265625,25.488281,-3.662109
1892228014,-0.450195,-0.157959,0.874756,3.967285,2.281189,1.556396,22.265625,25.488281,-3.662109
1895062477,-0.454590,-0.154541,0.874268,4.203796,2.525330,1.487732,22.265625,25.488281,-3.662109
1897560121,-0.460205,-0.152344,0.871826,3.952026,2.441406,1.434326,22.045898,24.975586,-4.174805
1900140636,-0.460693,-0.148926,0.866455,4.150391,2.792358,1.342773,22.045898,24.975586,-4.174805
1903061664,-0.465820,-0.148193,0.866211,4.241943,2.716064,1.289368,22.045898,24.975586,-4.174805
1905608127,-0.469482,-0.146484,0.862549,4.119873,2.944946,1.091003,22.045898,24.975586,-4.174805
1908063104,-0.471680,-0.145508,0.862549,4.035950,2.677917,1.136780,22.045898,24.975586,-4.174805
1910613259,-0.474609,-0.146729,0.859131,4.646301,2.601624,0.915527,22.045898,24.975586,-4.174805
1913110903,-0.477295,-0.142822,0.854736,4.211426,2.593994,1.052856,22.045898,24.975586,-4.174805
1915611417,-0.475586,-0.145508,0.849121,4.196167,2.670288,0.846863,22.045898,24.975586,-4.174805
1918165676,-0.480225,-0.144287,0.848389,3.982544,1.991272,0.778198,22.338867,25.415039,-3.735352
1921265166,-0.480225,-0.140137,0.845459,3.799438,1.647949,0.709534,22.338867,25.415039,-3.735352
1924251014,-0.480713,-0.140137,0.843506,3.936768,1.747131,0.549316,22.338867,25.415039,-3.735352
1927188042,-0.480713,-0.143799,0.838379,3.669739,1.266479,0.610352,22.558594,24.609375,-3.662109
1930189070,-0.483154,-0.143799,0.841553,3.547668,1.075745,0.495911,22.558594,24.609375,-3.662109
1932645688,-0.479980,-0.147461,0.851807,3.662109,0.808716,0.617981,22.558594,24.609375,-3.662109
1935225793,-0.477295,-0.143311,0.843506,3.585815,0.434875,0.358582,22.558594,24.609375,-3.662109
1938158308,-0.472656,-0.148193,0.848145,3.730774,0.251770,0.404358,22.119141,25.341797,-4.541016
1940744156,-0.471924,-0.149658,0.851563,3.540039,-0.045776,0.503540,22.119141,25.341797,-4.541016
1943782928,-0.468506,-0.148193,0.855469,3.356934,-0.251770,0.152588,22.119141,25.341797,-4.541016
1946778212,-0.466553,-0.144287,0.863037,3.265381,-0.663757,0.617981,21.459961,24.975586,-3.442383
1949780471,-0.468262,-0.145752,0.863281,3.318787,-0.610352,0.686646,21.459961,24.975586,-3.442383
1952694115,-0.461426,-0.149658,0.870361,3.143311,-0.648499,0.633240,21.459961,24.975586,-3.442383
1955244270,-0.459961,-0.145752,0.877686,2.906799,-0.617981,0.541687,21.459961,24.975586,-3.442383
1957748478,-0.461426,-0.144531,0.884766,2.517700,-0.419617,0.701904,21.826172,25.634766,-3.515625
1960245300,-0.458252,-0.145508,0.881592,2.861023,-0.297546,0.640869,21.826172,25.634766,-3.515625
1963272585,-0.453857,-0.137695,0.887207,2.227783,-0.320435,0.953674,21.826172,25.634766,-3.515625
1966328177,-0.453857,-0.140137,0.897461,2.243042,-0.083923,1.060486,21.826172,25.634766,-3.515625
1969328385,-0.453857,-0.140137,0.892334,2.288818,-0.274658,0.885010,21.899414,25.122070,-4.028320
1972761823,-0.452148,-0.141113,0.886230,1.609802,0.091553,0.877380,21.899414,25.122070,-4.028320
1975337005,-0.450928,-0.137207,0.879395,1.754761,0.373840,1.190186,21.899414,25.122070,-4.028320
1978383982,-0.452393,-0.137451,0.892578,1.564026,0.427246,0.770569,21.972656,25.195313,-4.101563
1981359984,-0.450684,-0.131104,0.892334,1.258850,0.961304,0.930786,21.972656,25.195313,-4.101563
1984382756,-0.457275,-0.138184,0.890137,1.312256,1.243591,0.732422,21.972656,25.195313,-4.101563
1987307887,-0.454834,-0.134521,0.888672,1.060486,1.121521,0.587463,21.899414,24.975586,-3.295898
1989848607,-0.463623,-0.137207,0.888916,1.106262,1.266479,0.556946,21.899414,24.975586,-3.295898
1992805327,-0.462891,-0.136230,0.875732,1.197815,1.258850,0.404358,21.899414,24.975586,-3.295898
1995308303,-0.466064,-0.140625,0.872070,0.778198,1.518250,0.350952,21.899414,24.975586,-3.295898
1997852305,-0.466553,-0.140137,0.871826,0.747681,1.533508,0.221252,22.119141,25.634766,-3.515625
2000434051,-0.465088,-0.142090,0.868652,1.029968,1.525879,0.259399,22.119141,25.634766,-3.515625
2003356720,-0.467285,-0.149658,0.865723,0.679016,1.296997,0.015259,22.119141,25.634766,-3.515625
2005859286,-0.464600,-0.149414,0.861084,0.823975,1.243591,0.221252,21.972656,25.048828,-3.662109
2008357750,-0.468750,-0.152588,0.872803,0.373840,1.205444,0.305176,21.972656,25.048828,-3.662109
2010855393,-0.473145,-0.157471,0.865723,0.457764,1.159668,0.480652,21.972656,25.048828,-3.662109
2013446985,-0.475586,-0.158447,0.856689,0.709534,1.083374,0.343323,21.972656,25.048828,-3.662109
2016370474,-0.473633,-0.161621,0.854980,0.785828,0.785828,0.457764,21.459961,25.561523,-3.881836
2018868118,-0.476318,-0.163574,0.855225,0.968933,0.587463,0.633240,21.459961,25.561523,-3.881836
2021915094,-0.472900,-0.162354,0.856201,0.679016,0.518799,0.717163,21.459961,25.561523,-3.881836
2024409455,-0.473389,-0.163818,0.855469,0.801086,0.434875,0.671387,21.459961,25.561523,-3.881836
2027416637,-0.468506,-0.162842,0.860596,0.694275,0.244141,0.770569,22.192383,25.122070,-3.588867
2029955306,-0.473633,-0.165527,0.861328,1.014709,0.076294,1.136780,22.192383,25.122070,-3.588867
2032937462,-0.465088,-0.163330,0.864258,0.709534,0.022888,1.060486,22.192383,25.122070,-3.588867
2035437157,-0.462402,-0.166016,0.860840,0.869751,-0.122070,1.182556,22.192383,25.122070,-3.588867
2037943005,-0.459473,-0.165771,0.869385,1.022339,-0.511169,1.228333,22.192383,25.122070,-3.588867
2040428340,-0.456299,-0.164551,0.866211,0.732422,-0.076294,1.213074,22.192383,25.122070,-3.588867
2042973983,-0.457275,-0.169678,0.866699,1.213074,-0.366211,1.747131,22.192383,25.122070,-3.588867
2045479421,-0.450195,-0.165039,0.874023,0.816345,-0.297546,1.365662,22.192383,25.122070,-3.588867
2047974193,-0.452393,-0.165771,0.881592,1.167297,-0.343323,1.777649,22.045898,25.561523,-4.321289
2050477169,-0.447266,-0.163330,0.880371,1.022339,-0.137329,1.480103,22.045898,25.561523,-4.321289
2052978915,-0.448975,-0.165283,0.880371,1.152039,-0.335693,1.411438,22.045898,25.561523,-4.321289
2055985686,-0.446777,-0.162598,0.882080,1.495361,0.289917,1.274109,22.045898,25.561523,-4.321289
2058561689,-0.448242,-0.160156,0.892578,1.701355,0.244141,1.533508,22.045898,25.561523,-4.321289
2061559024,-0.450684,-0.158203,0.881104,2.090454,0.503540,1.457214,22.045898,25.561523,-4.321289
2064534206,-0.452393,-0.161377,0.894043,2.075195,0.770569,1.304626,22.045898,25.561523,-4.321289
2067529491,-0.451172,-0.159912,0.895752,1.945496,0.877380,1.480103,21.606445,24.682617,-3.881836
2070041083,-0.451904,-0.156982,0.890869,2.220154,1.197815,1.228333,21.606445,24.682617,-3.881836
2073036367,-0.452148,-0.154297,0.882324,1.960754,1.403809,1.220703,21.606445,24.682617,-3.881836
2075531138,-0.453857,-0.150146,0.880127,1.960754,1.541138,1.312256,21.606445,24.682617,-3.881836
2078081294,-0.458008,-0.152344,0.880371,2.258301,1.441956,1.480103,21.606445,24.682617,-3.881836
2080615040,-0.460449,-0.152832,0.877441,2.403259,1.617432,1.159668,21.606445,24.682617,-3.881836
2083583658,-0.463867,-0.149902,0.871826,2.311707,1.747131,1.113892,21.606445,24.682617,-3.881836
2086095250,-0.466553,-0.154541,0.864502,2.471924,1.655579,1.045227,21.899414,24.829102,-3.735352
2088559662,-0.465576,-0.153564,0.867676,2.479553,1.609802,0.984192,21.899414,24.829102,-3.735352
2091066331,-0.468018,-0.147949,0.877686,2.624512,1.594543,1.129150,21.899414,24.829102,-3.735352
2093601717,-0.471924,-0.153076,0.863037,2.456665,1.548767,1.113892,21.899414,24.829102,-3.735352
2096098130,-0.467773,-0.154785,0.862793,2.250671,1.541138,0.633240,21.899414,24.829102,-3.735352
2099103671,-0.469238,-0.153564,0.865723,2.433777,1.281738,0.946045,21.899414,24.829102,-3.735352
2101606237,-0.465088,-0.146973,0.858643,2.433777,1.373291,1.235962,21.899414,24.829102,-3.735352
2104687265,-0.465576,-0.147949,0.857422,2.197266,0.991821,0.869751,21.899414,24.829102,-3.735352
2107735473,-0.468994,-0.147949,0.857666,2.456665,0.724792,1.258850,22.558594,25.781250,-4.248047
2110736501,-0.468994,-0.147705,0.851074,1.976013,0.755310,0.831604,22.558594,25.781250,-4.248047
2113741221,-0.468018,-0.148926,0.858398,2.174377,0.862122,1.075745,22.558594,25.781250,-4.248047
2116741429,-0.467041,-0.151611,0.858887,2.113342,0.236511,1.396179,22.558594,25.781250,-4.248047
2119737123,-0.466797,-0.145264,0.855469,1.815796,0.305176,1.274109,22.558594,25.781250,-4.248047
2122662664,-0.461426,-0.145996,0.859619,1.884460,0.236511,1.533508,22.558594,25.781250,-4.248047
2125284205,-0.463623,-0.141602,0.865234,1.686096,0.068665,1.159668,22.412109,24.902344,-4.248047
2128289746,-0.459961,-0.141846,0.864746,1.945496,-0.068665,1.197815,22.412109,24.902344,-4.541016
2131237851,-0.455322,-0.145020,0.870850,1.731873,-0.236511,1.220703,22.412109,24.902344,-4.541016
2134209340,-0.453857,-0.145752,0.876709,1.647949,0.015259,1.312256,22.412109,24.902344,-4.541016
2136704112,-0.452637,-0.144287,0.876465,1.495361,0.175476,1.098633,22.412109,24.902344,-4.541016
2139213242,-0.450928,-0.141846,0.880859,1.403809,0.236511,1.075745,22.412109,24.902344,-4.541016
2141765039,-0.453369,-0.141846,0.878662,1.396179,-0.061035,1.167297,22.412109,24.902344,-4.541016
2144265964,-0.448975,-0.144287,0.886230,1.403809,0.144958,1.113892,22.412109,24.902344,-4.541016
2147273556,-0.451172,-0.142822,0.885986,1.144409,0.267029,1.167297,21.826172,24.902344,-4.394531
2149784738,-0.446777,-0.145996,0.886230,1.068115,0.389099,0.862122,21.826172,24.902344,-4.394531
2152232330,-0.453369,-0.144043,0.885010,1.327515,0.427246,1.075745,21.826172,24.902344,-4.394531
2154777152,-0.449951,-0.141357,0.882324,1.197815,0.915527,0.801086,21.826172,24.902344,-4.394531
2157273975,-0.455566,-0.141602,0.881836,1.358032,0.793457,0.915527,21.826172,24.902344,-4.394531
2159779413,-0.452148,-0.141846,0.873535,1.106262,1.228333,0.930786,21.826172,24.902344,-4.394531
2162800954,-0.455078,-0.140625,0.880859,1.274109,1.144409,0.671387,21.826172,24.902344,-4.394531
2165329366,-0.457031,-0.148193,0.886230,0.915527,1.121521,0.839233,21.972656,25.341797,-3.662109
2168304548,-0.455566,-0.150146,0.879639,0.694275,1.625061,0.640869,21.972656,25.341797,-3.662109
2170880140,-0.456787,-0.146973,0.872314,1.037598,1.312256,0.717163,21.972656,25.341797,-3.662109
2173839732,-0.456299,-0.146973,0.864746,1.075745,1.579285,0.572205,21.972656,25.341797,-3.662109
2176808760,-0.460449,-0.150635,0.873047,1.152039,1.281738,0.404358,21.972656,25.341797,-3.662109
2179306813,-0.463135,-0.149658,0.865723,1.213074,1.350403,0.312805,21.972656,25.341797,-3.662109
2181817585,-0.464355,-0.154541,0.863770,1.174927,1.403809,0.289917,21.972656,25.341797,-3.662109
2184897792,-0.462646,-0.153076,0.859863,1.403809,1.258850,0.335693,21.972656,25.341797,-3.662109
2188355026,-0.464355,-0.154541,0.860352,1.289368,1.281738,0.328064,22.631836,24.975586,-3.442383
2190851848,-0.464844,-0.154785,0.860352,1.434326,1.136780,0.175476,22.631836,24.975586,-3.442383
2193352774,-0.460938,-0.156982,0.862305,1.701355,0.885010,0.213623,22.631836,24.975586,-3.442383
2195860263,-0.466064,-0.158447,0.860107,1.518250,0.839233,0.190735,22.631836,24.975586,-3.442383
2198908881,-0.464844,-0.157959,0.867188,1.464844,0.823975,0.335693,22.631836,24.975586,-3.442383
2201862729,-0.464111,-0.155518,0.859863,1.411438,0.556946,0.198364,22.631836,24.975586,-3.442383
2205005706,-0.462158,-0.159180,0.855713,1.296997,0.511169,0.320435,22.631836,24.975586,-3.442383
2207904170,-0.459717,-0.162598,0.862793,1.487732,0.450134,0.343323,21.899414,24.975586,-4.174805
2210973711,-0.457764,-0.162354,0.862549,1.358032,0.015259,0.457764,21.899414,24.975586,-4.174805
2213902124,-0.452637,-0.162354,0.875977,1.327515,0.007629,0.587463,21.899414,24.975586,-4.174805
2216457203,-0.458252,-0.162842,0.872314,1.541138,0.297546,0.572205,21.899414,24.975586,-4.174805
2219413923,-0.457275,-0.159912,0.875244,1.525879,0.328064,0.640869,21.899414,24.975586,-4.174805
2221955464,-0.455078,-0.161621,0.867920,1.960754,-0.007629,0.755310,21.899414,24.975586,-4.174805
2224540491,-0.453857,-0.160889,0.880615,1.731873,0.427246,0.946045,21.899414,24.975586,-4.174805
2228037520,-0.455811,-0.160400,0.876221,1.571655,0.404358,0.770569,21.972656,25.634766,-3.662109
2231045112,-0.451660,-0.153809,0.880371,1.663208,0.518799,0.823975,21.972656,25.634766,-3.662109
2234038345,-0.449219,-0.157471,0.882324,1.609802,0.755310,0.740051,21.972656,25.634766,-3.662109
2236959373,-0.449219,-0.152344,0.879639,1.747131,1.205444,0.961304,21.972656,25.634766,-3.662109
2239957119,-0.447021,-0.152588,0.880615,1.632690,0.808716,0.976563,21.972656,25.634766,-3.662109
2242470763,-0.447754,-0.148926,0.884277,1.785278,1.068115,0.686646,21.972656,25.634766,-3.662109
2245002457,-0.452148,-0.152588,0.878662,1.693726,1.274109,0.984192,22.338867,24.829102,-3.735352
2248090459,-0.451660,-0.151367,0.885742,2.204895,1.296997,0.556946,22.338867,24.829102,-3.735352
2251024205,-0.450195,-0.150879,0.885742,1.815796,1.464844,0.373840,22.338867,24.829102,-3.735352
2253535797,-0.455566,-0.149414,0.882324,2.059937,1.647949,0.091553,22.338867,24.829102,-3.735352
2256036312,-0.455566,-0.148193,0.874512,2.067566,1.724243,0.274658,22.338867,24.829102,-3.735352
2258536417,-0.460693,-0.146729,0.881836,2.105713,1.800537,0.053406,22.338867,24.829102,-3.735352
2261028316,-0.461914,-0.148926,0.880615,2.014160,1.869202,0.274658,22.338867,24.829102,-3.735352
2263582575,-0.463867,-0.147705,0.872070,2.174377,2.014160,-0.030518,22.338867,24.829102,-3.735352
2266610680,-0.458740,-0.147949,0.875488,2.334595,1.800537,0.122070,22.265625,24.902344,-4.248047
2269603093,-0.464600,-0.150635,0.866455,1.823425,2.029419,0.129700,22.265625,24.902344,-4.248047
2272582787,-0.465820,-0.148926,0.864746,2.189636,2.067566,0.190735,22.265625,24.902344,-4.248047
2275080841,-0.465088,-0.154297,0.870850,1.899719,1.785278,0.221252,21.899414,25.268555,-3.881836
2277669561,-0.462891,-0.153809,0.869141,2.120972,1.846313,0.419617,21.899414,25.268555,-3.881836
2280630384,-0.469727,-0.152832,0.863281,1.907349,1.716614,0.305176,21.899414,25.268555,-3.881836
2283717566,-0.467041,-0.159424,0.859863,1.861572,1.510620,0.328064,21.899414,25.268555,-3.881836
2286643517,-0.467773,-0.157715,0.864258,1.655579,1.594543,0.381470,21.752930,25.122070,-4.028320
2289647417,-0.470459,-0.156494,0.857910,2.014160,1.358032,0.411987,21.752930,25.122070,-4.028320
2292600034,-0.470215,-0.154297,0.862305,2.014160,1.144409,0.480652,21.752930,25.122070,-4.028320
2295686396,-0.467529,-0.156494,0.863281,2.334595,1.373291,0.122070,21.972656,25.195313,-4.101563
2298623424,-0.467285,-0.156738,0.865967,2.014160,0.846863,0.427246,21.972656,25.195313,-4.101563
2301705273,-0.463867,-0.156494,0.868652,2.105713,0.495911,0.358582,21.972656,25.195313,-4.101563
2304662403,-0.459473,-0.156982,0.877930,2.021790,1.007080,0.404358,21.313477,25.195313,-4.101563
2307208046,-0.458008,-0.157715,0.878662,1.815796,0.885010,0.488281,21.313477,25.415039,-3.881836
2309740151,-0.460449,-0.156494,0.873779,1.808167,0.633240,0.671387,21.313477,25.415039,-3.881836
2312663641,-0.459717,-0.158691,0.870605,1.907349,0.816345,0.564575,21.313477,25.415039,-3.881836
2315290515,-0.460205,-0.157227,0.877441,1.937866,0.839233,0.686646,22.485352,25.268555,-3.735352
2318281697,-0.454346,-0.158447,0.883545,1.991272,0.709534,0.617981,22.485352,25.268555,-3.735352
2321230622,-0.458740,-0.158447,0.887207,2.075195,0.976563,0.724792,22.485352,25.268555,-3.735352
2324256676,-0.453613,-0.160889,0.873535,1.739502,1.449585,0.541687,22.485352,25.268555,-3.735352
2327248678,-0.455566,-0.154541,0.879639,2.334595,1.373291,0.869751,22.045898,24.829102,-4.321289
2330297296,-0.454834,-0.156738,0.882568,2.319336,1.556396,0.709534,22.045898,24.829102,-4.321289
2333305709,-0.451904,-0.156006,0.882324,1.899719,1.693726,0.923157,22.045898,24.829102,-4.321289
2336243968,-0.455811,-0.154541,0.881348,2.311707,1.602173,0.663757,22.045898,25.122070,-4.028320
2338734636,-0.458008,-0.146729,0.873291,1.823425,1.823425,0.556946,22.045898,25.122070,-4.028320
2341279459,-0.458740,-0.150635,0.876221,2.098083,2.098083,0.671387,22.045898,25.122070,-4.028320
2343788179,-0.458984,-0.151611,0.871582,2.059937,2.166748,0.679016,22.045898,25.122070,-4.028320
2346283771,-0.462402,-0.150146,0.878418,1.937866,2.059937,0.717163,21.826172,24.755859,-3.955078
2349310235,-0.464111,-0.152344,0.869385,2.197266,2.235413,0.724792,21.826172,24.755859,-3.955078
2352289519,-0.465576,-0.151123,0.860596,2.159119,2.120972,0.762939,21.826172,24.755859,-3.955078
2354788393,-0.465820,-0.150391,0.858887,1.670837,2.220154,0.465393,21.899414,25.268555,-4.174805
2357783267,-0.468994,-0.149170,0.860596,1.815796,1.983643,0.679016,21.899414,25.268555,-4.174805
2360286654,-0.468506,-0.153076,0.865479,1.747131,1.983643,0.907898,21.899414,25.268555,-4.174805
2362793733,-0.475342,-0.146973,0.856689,1.609802,1.991272,0.541687,21.899414,25.268555,-4.174805
2365382863,-0.475342,-0.153076,0.852295,1.884460,1.869202,0.450134,22.265625,25.781250,-4.541016
2368327276,-0.473633,-0.151123,0.844971,1.831055,1.808167,0.572205,22.265625,25.781250,-4.541016
2371448509,-0.475586,-0.155518,0.858643,1.647949,1.586914,0.656128,22.265625,25.781250,-4.541016
2374377332,-0.476563,-0.146729,0.858643,1.945496,1.152039,0.473022,22.265625,25.781250,-4.541016
2377431284,-0.476074,-0.151611,0.853027,1.998901,1.274109,0.679016,22.045898,25.268555,-4.321289
2380356414,-0.474854,-0.153564,0.848389,1.670837,1.182556,0.549316,22.045898,25.268555,-4.321289
2383403801,-0.476318,-0.149902,0.857422,1.762390,0.732422,0.564575,22.045898,25.268555,-4.321289
2386404009,-0.475342,-0.151123,0.851563,1.663208,0.816345,0.740051,22.045898,25.268555,-4.321289
2389352114,-0.475586,-0.147949,0.851563,1.564026,0.289917,0.556946,22.045898,25.268555,-4.321289
2392375296,-0.471924,-0.153320,0.857910,1.525879,0.518799,0.640869,22.045898,25.268555,-4.321289
2395443196,-0.473633,-0.155518,0.856689,1.701355,0.373840,0.633240,21.972656,25.048828,-4.101563
2398416737,-0.470947,-0.147949,0.861816,1.625061,0.198364,0.587463,21.972656,25.048828,-4.101563
2400910277,-0.470459,-0.153564,0.857910,1.426697,0.198364,0.427246,21.972656,25.048828,-4.101563
2403423100,-0.468506,-0.155029,0.868896,1.441956,0.022888,0.549316,21.972656,25.048828,-4.101563
2405927307,-0.466064,-0.154541,0.862793,1.701355,-0.274658,0.465393,21.972656,25.048828,-4.101563
2408502489,-0.464600,-0.152100,0.869873,1.586914,-0.114441,0.160217,21.972656,25.048828,-4.101563
2411581465,-0.468018,-0.149658,0.865723,1.434326,-0.038147,0.442505,21.972656,25.048828,-4.101563
2414436442,-0.466064,-0.146973,0.862061,1.701355,-0.137329,0.030518,22.192383,25.415039,-4.614258
2417014496,-0.462891,-0.150391,0.872559,1.884460,-0.389099,0.030518,22.192383,25.415039,-4.614258
2420013062,-0.464111,-0.153564,0.875488,2.082825,-0.427246,0.038147,22.192383,25.415039,-4.614258
2422981270,-0.461426,-0.153076,0.878174,1.914978,-0.312805,-0.160217,22.192383,25.415039,-4.614258
2425482195,-0.457520,-0.156494,0.885742,2.212524,-0.045776,-0.129700,22.192383,25.415039,-4.614258
2428561992,-0.455566,-0.158203,0.873047,1.976013,-0.175476,-0.167847,22.192383,25.415039,-4.614258
2431536354,-0.456055,-0.157959,0.875977,2.258301,0.000000,-0.251770,22.192383,25.415039,-4.614258
2434618613,-0.455811,-0.157959,0.882813,1.708984,0.061035,0.007629,22.045898,25.122070,-4.174805
2437616359,-0.457764,-0.155762,0.883545,1.670837,0.625610,0.106812,22.045898,25.122070,-4.174805
2440534515,-0.458496,-0.158447,0.875000,1.968384,0.465393,0.251770,22.045898,25.122070,-4.174805
2443611440,-0.456055,-0.155029,0.873535,1.937866,0.633240,0.175476,22.045898,25.122070,-4.174805
2446535751,-0.456543,-0.156006,0.881348,1.960754,0.785828,0.389099,22.045898,25.122070,-4.174805
2449034214,-0.457764,-0.148438,0.872559,1.884460,1.068115,0.167847,22.045898,25.122070,-4.174805
2451535549,-0.458740,-0.145752,0.872314,1.953125,1.228333,0.625610,22.045898,25.122070,-4.174805
2454039346,-0.454834,-0.146484,0.868164,1.327515,1.228333,0.289917,21.533203,25.341797,-3.955078
2456585400,-0.454834,-0.145752,0.866699,1.884460,1.228333,0.312805,21.533203,25.341797,-3.955078
2459085504,-0.457520,-0.142090,0.871582,1.319885,1.197815,0.205994,21.533203,25.341797,-3.955078
2462089815,-0.459473,-0.147949,0.865479,1.243591,1.190186,0.259399,21.533203,25.341797,-3.955078
2465134330,-0.462402,-0.141602,0.875000,1.594543,1.205444,0.366211,21.533203,25.341797,-3.955078
2468083666,-0.466064,-0.140381,0.858643,1.235962,1.296997,0.190735,21.533203,25.341797,-3.955078
2471088796,-0.467041,-0.144043,0.865234,1.281738,1.182556,0.183105,21.533203,25.341797,-3.955078
2473583978,-0.471436,-0.144775,0.861816,0.984192,1.029968,0.129700,22.045898,25.122070,-3.881836
2476084082,-0.469238,-0.144775,0.864746,1.045227,1.022339,0.030518,22.045898,25.122070,-3.881836
2478678136,-0.466309,-0.147217,0.863037,1.022339,0.938416,0.152588,22.045898,25.122070,-3.881836
2481686959,-0.470215,-0.148682,0.857422,1.197815,0.877380,-0.022888,22.045898,25.122070,-3.881836
2484719577,-0.471191,-0.150879,0.858887,1.052856,0.862122,-0.137329,22.045898,25.122070,-3.881836
2487707066,-0.470459,-0.149170,0.860596,0.747681,0.686646,-0.183105,22.045898,25.122070,-3.881836
2490641223,-0.467285,-0.149902,0.865234,0.816345,0.465393,0.274658,22.045898,25.122070,-3.881836
2493141737,-0.466797,-0.149658,0.860596,0.602722,0.778198,-0.053406,22.045898,25.122070,-3.881836
2495644714,-0.465820,-0.152832,0.865967,0.434875,0.579834,0.152588,22.265625,25.341797,-3.955078
2498147280,-0.467529,-0.157471,0.865234,0.885010,0.244141,0.396729,22.265625,25.341797,-3.955078
2500680615,-0.468750,-0.158691,0.860840,0.892639,0.396729,0.122070,22.265625,25.341797,-3.955078
2503705849,-0.468262,-0.155029,0.869629,0.770569,0.106812,0.205994,22.265625,25.341797,-3.955078
2506205953,-0.465332,-0.156250,0.869141,0.953674,-0.030518,0.221252,22.265625,25.341797,-3.955078
2508702776,-0.461670,-0.155762,0.872070,0.770569,0.205994,0.045776,22.265625,25.341797,-3.955078
2511200009,-0.452393,-0.158691,0.874268,0.816345,0.198364,0.244141,22.265625,25.341797,-3.955078
2513702165,-0.452881,-0.160645,0.879639,0.923157,0.473022,0.350952,22.412109,25.195313,-4.101563
2516251090,-0.453369,-0.162354,0.877197,0.930786,0.068665,0.434875,22.412109,25.195313,-4.101563
2518830784,-0.456787,-0.157715,0.888428,0.755310,0.259399,0.213623,22.412109,25.195313,-4.101563
2521749351,-0.448975,-0.158936,0.881348,1.144409,0.541687,0.572205,22.412109,25.195313,-4.101563
2524753661,-0.449951,-0.156982,0.880859,0.900269,0.312805,0.480652,22.412109,25.195313,-4.101563
2527250483,-0.451172,-0.158203,0.878174,1.152039,0.778198,0.595093,22.412109,25.195313,-4.101563
2529835511,-0.451904,-0.160400,0.888672,0.976563,0.701904,0.251770,22.412109,25.195313,-4.101563
2532803308,-0.450684,-0.157227,0.888916,1.396179,0.816345,0.137329,22.412109,25.195313,-4.101563
2535304234,-0.456299,-0.152832,0.885742,1.510620,1.358032,0.106812,22.265625,24.902344,-3.662109
2538264236,-0.457764,-0.155273,0.880371,1.113892,1.258850,0.328064,22.265625,24.902344,-3.662109
2540846392,-0.454102,-0.149414,0.887207,1.190186,1.274109,0.122070,22.265625,24.902344,-3.662109
2543845779,-0.458008,-0.153809,0.885010,1.525879,1.609802,0.350952,22.265625,24.902344,-3.662109
2546894397,-0.457764,-0.153564,0.885742,0.930786,1.640320,0.068665,22.265625,24.902344,-3.662109
2549895015,-0.453369,-0.150879,0.883789,0.854492,1.747131,-0.038147,22.265625,24.902344,-3.662109
2553394915,-0.457275,-0.150146,0.875244,0.846863,1.792908,-0.106812,22.265625,24.902344,-3.662109
2556373379,-0.462891,-0.152588,0.871826,0.892639,1.945496,0.000000,22.265625,25.634766,-3.955078
2559362510,-0.467041,-0.146240,0.871582,0.732422,1.960754,-0.099182,22.265625,25.634766,-3.955078
2562372153,-0.467529,-0.149658,0.876221,0.709534,1.869202,-0.099182,22.265625,25.634766,-3.955078
2565911848,-0.470215,-0.149170,0.875000,1.052856,2.220154,-0.167847,22.265625,25.634766,-3.955078
2568868979,-0.469482,-0.145020,0.880371,1.197815,1.937866,-0.350952,22.265625,25.634766,-3.955078
2571449904,-0.476563,-0.149170,0.861328,0.671387,1.701355,-0.534058,22.265625,25.634766,-3.955078
2574446009,-0.473633,-0.153564,0.864258,0.846863,1.922607,-0.335693,22.045898,25.415039,-4.174805
2577488473,-0.481201,-0.152588,0.857178,0.793457,1.640320,-0.350952,22.045898,25.415039,-4.174805
2580415245,-0.481934,-0.156494,0.856201,0.701904,1.586914,-0.389099,22.045898,25.415039,-4.174805
2583497504,-0.484375,-0.157471,0.845703,0.869751,1.113892,-0.442505,22.045898,25.415039,-4.174805
2586444378,-0.482422,-0.161377,0.851563,0.640869,1.060486,-0.595093,22.045898,25.415039,-4.174805
2589377714,-0.480957,-0.162842,0.843262,0.747681,1.281738,-0.511169,22.045898,25.415039,-4.174805
2591925819,-0.479980,-0.159180,0.843994,0.480652,0.343323,-0.488281,22.045898,25.415039,-4.174805
2594924795,-0.478027,-0.165283,0.842285,0.793457,0.473022,-0.457764,21.972656,25.195313,-3.955078
2597554541,-0.477783,-0.157227,0.840820,0.755310,0.106812,-0.587463,21.972656,25.195313,-3.955078
2600473108,-0.474854,-0.164307,0.827148,0.999451,-0.488281,-0.335693,21.972656,25.195313,-3.955078
2603071264,-0.475586,-0.168213,0.840820,0.610352,-0.419617,-0.503540,22.412109,25.195313,-3.955078
2606169112,-0.471924,-0.162354,0.830566,1.541138,-0.648499,-0.755310,22.412109,25.488281,-3.955078
2609163987,-0.468994,-0.165039,0.837891,0.930786,-1.098633,-0.572205,22.412109,25.488281,-3.955078
2612090348,-0.463867,-0.163818,0.842529,1.487732,-1.220703,-0.617981,22.412109,25.488281,-3.955078
2615162761,-0.462891,-0.163330,0.849854,1.632690,-1.266479,-0.648499,21.679688,24.462891,-4.394531
2618138763,-0.458984,-0.164551,0.856689,1.770020,-1.518250,-0.236511,21.679688,24.462891,-4.394531
2621083586,-0.455322,-0.163330,0.851318,1.853943,-1.403809,-0.267029,21.679688,24.462891,-4.394531
2623651793,-0.456787,-0.164795,0.857178,1.724243,-1.586914,-0.373840,22.558594,25.195313,-3.369141
2626648309,-0.451660,-0.162842,0.862305,1.991272,-1.510620,-0.350952,22.558594,25.195313,-3.369141
2629655901,-0.450439,-0.167725,0.869385,2.090454,-1.251221,-0.099182,22.558594,25.195313,-3.369141
2632589236,-0.448242,-0.167236,0.871094,2.395630,-1.327515,0.068665,22.558594,25.195313,-3.369141
2635127495,-0.443115,-0.161133,0.873535,2.326965,-1.113892,-0.183105,21.972656,24.462891,-4.101563
2637629241,-0.450439,-0.159180,0.876709,2.647400,-0.953674,-0.038147,21.972656,24.462891,-4.101563
2640137140,-0.449219,-0.156982,0.884277,2.532959,-0.595093,0.289917,21.972656,24.462891,-4.101563
2642667604,-0.447754,-0.157959,0.887695,2.876282,-0.732422,0.068665,21.972656,24.462891,-4.101563
2645630888,-0.448975,-0.154053,0.885742,2.403259,-0.381470,0.297546,22.192383,24.975586,-4.614258
2648185967,-0.448730,-0.150391,0.882324,1.892090,-0.114441,0.366211,22.192383,24.975586,-4.614258
2651192329,-0.451172,-0.153076,0.879639,2.105713,-0.488281,0.381470,22.192383,24.975586,-4.614258
2654705357,-0.452148,-0.150635,0.890869,1.968384,0.022888,0.747681,22.705078,24.902344,-4.101563
2657780232,-0.451660,-0.153564,0.889404,1.777649,0.389099,0.701904,22.705078,24.902344,-4.101563
2660782080,-0.458984,-0.150391,0.885986,1.640320,0.541687,0.434875,22.705078,24.902344,-4.101563
2663790493,-0.456055,-0.150146,0.882568,1.678467,0.495911,0.671387,22.192383,26.000977,-4.028320
2666834188,-0.461914,-0.149658,0.873779,1.831055,0.740051,0.457764,22.192383,26.000977,-4.028320
2669745780,-0.457520,-0.155518,0.871094,1.861572,0.854492,0.267029,22.192383,26.000977,-4.028320
2672787423,-0.459717,-0.148926,0.872803,1.785278,0.877380,0.167847,22.192383,26.000977,-4.028320
2675760964,-0.458984,-0.152832,0.868408,1.899719,0.663757,-0.045776,22.119141,25.195313,-3.955078
2678755428,-0.456055,-0.153076,0.867920,1.960754,0.991821,0.076294,22.119141,25.195313,-3.955078
2681763841,-0.456299,-0.151367,0.868652,2.159119,0.892639,-0.297546,22.119141,25.195313,-3.955078
2684805484,-0.455811,-0.150879,0.871094,2.159119,0.823975,0.000000,22.119141,24.755859,-3.369141
2688235641,-0.457764,-0.152344,0.876953,1.808167,0.633240,0.129700,22.119141,24.755859,-3.369141
2690774310,-0.452881,-0.155762,0.871582,1.625061,0.617981,-0.099182,22.119141,24.755859,-3.369141
2693253902,-0.453857,-0.153564,0.869873,1.510620,0.816345,0.228882,22.119141,24.755859,-3.369141
2695795852,-0.453857,-0.153320,0.869873,1.419067,0.556946,0.320435,22.119141,24.755859,-3.369141
2698257803,-0.452637,-0.151611,0.869385,1.174927,1.205444,0.450134,22.119141,24.755859,-3.369141
2700785395,-0.453125,-0.147705,0.885010,1.258850,0.770569,0.511169,22.119141,24.755859,-3.369141
2703295756,-0.457764,-0.146729,0.873779,0.595093,1.274109,0.549316,22.558594,25.048828,-4.394531
2706354220,-0.453369,-0.144531,0.878418,0.656128,1.014709,0.518799,22.558594,25.048828,-4.394531
2709354428,-0.454590,-0.149170,0.880127,0.564575,1.358032,0.640869,22.558594,25.048828,-4.394531
2712863764,-0.453613,-0.141602,0.884033,0.419617,1.274109,0.457764,22.558594,25.048828,-4.394531
2715936177,-0.452637,-0.142578,0.885498,0.320435,1.197815,0.518799,22.558594,25.048828,-4.394531
2719358538,-0.450195,-0.140625,0.884521,-0.038147,1.594543,0.396729,22.558594,25.048828,-4.394531
2722406746,-0.450684,-0.140137,0.884033,-0.061035,1.556396,0.442505,22.558594,25.048828,-4.394531
2725435261,-0.448730,-0.136963,0.881104,-0.404358,1.518250,0.289917,21.752930,24.829102,-4.321289
2728432597,-0.448730,-0.137207,0.884277,-0.579834,1.907349,0.183105,21.752930,24.829102,-4.321289
2731442651,-0.456055,-0.142578,0.881836,-0.366211,1.998901,0.274658,21.752930,24.829102,-4.321289
2734430141,-0.457031,-0.138428,0.886719,-0.846863,1.907349,0.411987,21.752930,24.829102,-4.321289
2737424605,-0.458496,-0.143311,0.889893,-0.572205,2.281189,0.045776,21.752930,24.829102,-4.321289
2740417838,-0.460449,-0.139648,0.878174,-1.129150,2.632141,0.076294,21.752930,24.829102,-4.321289
2742906865,-0.459961,-0.145264,0.874756,-1.190186,2.250671,-0.061035,21.752930,25.122070,-4.321289
2745406970,-0.470459,-0.143799,0.873291,-1.129150,2.578735,-0.175476,21.752930,25.122070,-4.321289
2747954664,-0.468506,-0.146729,0.874756,-1.228333,2.586365,0.099182,21.752930,25.122070,-4.321289
2750424410,-0.468262,-0.146484,0.863525,-1.335144,2.471924,-0.251770,21.752930,25.122070,-4.321289
2752955694,-0.469727,-0.151367,0.864746,-1.205444,2.449036,-0.434875,21.752930,25.122070,-4.321289
2755956722,-0.472168,-0.151367,0.863281,-1.548767,2.365112,-0.381470,21.752930,25.122070,-4.321289
2758501135,-0.473633,-0.150146,0.859131,-1.739502,2.197266,-0.473022,21.752930,25.122070,-4.321289
2761545650,-0.473633,-0.152344,0.852539,-1.541138,1.945496,-0.335693,21.752930,25.122070,-4.321289
2765030781,-0.477539,-0.163330,0.851074,-1.457214,2.021790,-0.686646,22.558594,25.341797,-4.394531
2768504835,-0.480957,-0.159180,0.847168,-1.487732,1.571655,-0.534058,22.558594,25.341797,-4.394531
2771501350,-0.482422,-0.161621,0.848877,-1.281738,1.251221,-0.679016,22.558594,25.341797,-4.394531
2774008840,-0.478271,-0.162842,0.852539,-1.708984,1.441956,-0.946045,22.558594,25.341797,-4.394531
2776508534,-0.475830,-0.165527,0.849365,-1.647949,0.907898,-0.747681,22.558594,25.341797,-4.394531
2779004946,-0.475586,-0.174072,0.854492,-1.396179,0.740051,-0.740051,22.558594,25.341797,-4.394531
2781531307,-0.471436,-0.168701,0.846191,-1.304626,0.488281,-0.740051,22.558594,25.341797,-4.394531
2784591823,-0.471680,-0.176514,0.854736,-1.220703,0.068665,-0.976563,22.412109,25.048828,-4.541016
2787512441,-0.468994,-0.174072,0.863037,-1.457214,0.495911,-0.801086,22.412109,25.048828,-4.541016
2790562289,-0.466797,-0.183105,0.861572,-1.029968,0.152588,-0.831604,22.412109,25.048828,-4.541016
2793099317,-0.469482,-0.181641,0.861084,-0.938416,-0.251770,-0.358582,22.412109,25.048828,-4.541016
2796140960,-0.468262,-0.188965,0.861084,-0.717163,-0.114441,-0.648499,22.412109,25.048828,-4.541016
2799144450,-0.463379,-0.184814,0.860840,-0.694275,-0.198364,-0.473022,22.412109,25.048828,-4.541016
2802564761,-0.458740,-0.186523,0.868896,-0.541687,-0.503540,-0.503540,22.412109,25.048828,-4.541016
2805152660,-0.455078,-0.192871,0.869873,-0.282288,-0.213623,-0.297546,22.338867,24.975586,-4.467773
2808159432,-0.453613,-0.194092,0.882568,-0.251770,-0.152588,-0.015259,22.338867,24.975586,-4.467773
2811209691,-0.448486,-0.189209,0.872314,0.022888,0.106812,0.053406,22.338867,24.975586,-4.467773
2814207847,-0.450684,-0.186523,0.877686,0.061035,0.297546,0.228882,22.338867,24.975586,-4.467773
2817209285,-0.446777,-0.190186,0.884766,0.419617,0.328064,0.434875,22.338867,24.975586,-4.467773
2820127442,-0.449951,-0.188232,0.884277,0.511169,0.701904,0.297546,22.338867,24.975586,-4.467773
2823130521,-0.453857,-0.184814,0.884766,0.991821,0.785828,0.480652,22.265625,25.195313,-3.808594
2825630215,-0.451904,-0.183105,0.878662,1.060486,1.182556,0.236511,22.265625,25.195313,-3.808594
2828209500,-0.454590,-0.182373,0.874756,1.014709,1.220703,0.686646,22.265625,25.195313,-3.808594
2831184271,-0.453857,-0.177490,0.879883,1.419067,1.396179,0.328064,22.265625,25.195313,-3.808594
2834182838,-0.458008,-0.176758,0.870605,1.716614,1.403809,0.320435,22.265625,25.195313,-3.808594
2836683763,-0.457764,-0.175049,0.873779,1.861572,1.716614,0.450134,22.265625,25.195313,-3.808594
2839136278,-0.460938,-0.171143,0.871094,1.815796,1.800537,0.320435,22.265625,25.195313,-3.808594
2841679870,-0.462646,-0.170898,0.864746,1.846313,1.884460,0.022888,22.265625,25.195313,-3.808594
2844181205,-0.465820,-0.169678,0.865967,2.098083,1.480103,0.404358,22.485352,24.829102,-4.467773
2846682130,-0.467041,-0.174072,0.862549,2.098083,1.777649,0.213623,22.485352,24.829102,-4.467773
2849181824,-0.474609,-0.171387,0.855225,2.105713,1.655579,0.343323,22.485352,24.829102,-4.467773
2851821827,-0.468750,-0.169922,0.858154,2.082825,1.579285,0.213623,22.485352,24.829102,-4.467773
2854785111,-0.471680,-0.171875,0.857178,2.029419,1.670837,0.167847,22.485352,24.829102,-4.467773
2857731985,-0.476563,-0.170166,0.847412,2.578735,1.419067,0.297546,22.485352,24.829102,-4.467773
2860761731,-0.472900,-0.168213,0.851074,2.479553,1.045227,0.312805,22.485352,24.829102,-4.467773
2863731170,-0.474854,-0.168701,0.847168,2.670288,1.060486,0.358582,22.631836,25.122070,-4.321289
2866281326,-0.472168,-0.168457,0.853027,2.494812,1.029968,0.236511,22.631836,25.122070,-4.321289
2869260200,-0.469238,-0.167480,0.852051,2.853394,0.564575,0.175476,22.631836,25.122070,-4.321289
2872241946,-0.470703,-0.167725,0.853516,2.716064,0.709534,0.297546,22.631836,25.122070,-4.321289
2874819999,-0.465576,-0.169189,0.856934,2.708435,0.396729,0.511169,22.631836,25.122070,-4.321289
2877786976,-0.465576,-0.168213,0.855469,2.220154,0.320435,0.709534,22.631836,25.122070,-4.321289
2880821235,-0.462158,-0.173096,0.865967,2.609253,-0.061035,0.808716,22.631836,25.122070,-4.321289
2883838673,-0.460205,-0.174072,0.860107,2.479553,0.183105,0.869751,22.705078,25.195313,-4.248047
2886834368,-0.461670,-0.167236,0.862305,2.494812,-0.251770,0.930786,22.705078,25.195313,-4.248047
2889793960,-0.458252,-0.169922,0.860840,3.135681,-0.038147,1.190186,22.705078,25.195313,-4.248047
2892790065,-0.457520,-0.165039,0.865479,2.960205,0.099182,0.946045,22.705078,25.195313,-4.248047
2895311503,-0.455811,-0.160400,0.875000,2.578735,0.167847,1.205444,22.705078,25.195313,-4.248047
2897887095,-0.455566,-0.159180,0.873535,3.044128,0.175476,1.068115,22.705078,25.195313,-4.248047
2901311098,-0.454834,-0.159912,0.882324,2.792358,0.022888,1.083374,22.705078,25.195313,-4.248047
2903886280,-0.456787,-0.156250,0.889893,2.899170,0.602722,1.205444,22.412109,24.462891,-3.955078
2906895923,-0.454102,-0.151611,0.890869,2.822876,0.701904,0.808716,22.412109,24.462891,-3.955078
2909866592,-0.456787,-0.150635,0.881836,2.738953,0.831604,0.968933,22.412109,24.462891,-3.955078
2912941877,-0.462646,-0.147217,0.886475,2.479553,0.778198,1.167297,22.412109,24.462891,-3.955078
2916363828,-0.458740,-0.150879,0.879150,2.555847,1.220703,0.854492,22.412109,24.462891,-3.955078
2919943729,-0.462158,-0.144775,0.880859,1.983643,1.152039,1.068115,22.412109,24.462891,-3.955078
2922974706,-0.462158,-0.148682,0.874512,1.976013,1.136780,0.953674,22.265625,24.902344,-4.101563
2925935939,-0.468506,-0.146484,0.872070,1.647949,1.243591,0.602722,22.265625,24.902344,-4.101563
2928912762,-0.470215,-0.145264,0.865234,1.922607,1.609802,0.831604,22.265625,24.902344,-4.101563
2931409174,-0.467773,-0.143311,0.862549,1.800537,1.129150,0.473022,22.265625,24.902344,-4.101563
2934476253,-0.470459,-0.143799,0.863281,1.739502,1.396179,0.595093,22.265625,25.195313,-3.662109
2937455128,-0.470459,-0.143799,0.857178,1.571655,1.411438,0.358582,22.265625,25.195313,-3.662109
2939956873,-0.471436,-0.144531,0.850586,1.235962,1.220703,0.617981,22.265625,25.195313,-3.662109
2942454927,-0.469971,-0.146484,0.846924,1.335144,1.152039,0.305176,22.119141,25.341797,-3.955078
2944953800,-0.475098,-0.147217,0.850098,1.281738,0.984192,0.244141,22.119141,25.341797,-3.955078
2947500264,-0.473389,-0.146240,0.852539,0.991821,0.694275,0.427246,22.119141,25.341797,-3.955078
2950045907,-0.476563,-0.149414,0.851318,0.839233,0.686646,0.129700,22.119141,25.341797,-3.955078
2953010833,-0.474121,-0.151611,0.840820,1.022339,0.419617,0.236511,22.412109,25.634766,-4.248047
2956006938,-0.471191,-0.152588,0.843750,1.060486,0.198364,0.152588,22.412109,25.634766,-4.248047
2959007145,-0.476807,-0.155762,0.846191,0.877380,-0.015259,-0.183105,22.412109,25.634766,-4.248047
2962050430,-0.468262,-0.160889,0.851318,1.159668,-0.366211,0.350952,22.338867,24.682617,-4.174805
2965085920,-0.467285,-0.163086,0.852051,0.793457,-0.518799,0.083923,22.338867,24.682617,-4.174805
2968013512,-0.469971,-0.166992,0.855713,1.037598,-0.556946,0.328064,22.338867,24.682617,-4.174805
2970515257,-0.467529,-0.168945,0.861572,1.235962,-0.679016,0.236511,22.338867,24.682617,-4.174805
2973014952,-0.464600,-0.167480,0.862793,1.167297,-0.648499,0.152588,21.459961,25.708008,-4.174805
2975561826,-0.464355,-0.168701,0.870117,0.885010,-0.648499,0.503540,21.459961,25.708008,-4.174805
2978068084,-0.464111,-0.170654,0.864014,1.144409,-0.679016,0.503540,21.459961,25.708008,-4.174805
2980607984,-0.465820,-0.172852,0.869629,1.106262,-0.625610,0.503540,21.459961,25.708008,-4.174805
2983568396,-0.460449,-0.172607,0.869385,1.327515,-0.793457,0.816345,22.851563,25.195313,-3.515625
2986063578,-0.454346,-0.173828,0.870850,1.228333,-0.694275,0.701904,22.851563,25.195313,-3.515625
2989080606,-0.460693,-0.172119,0.879639,1.144409,-0.381470,0.869751,22.851563,25.195313,-3.515625
2991574967,-0.458740,-0.172119,0.876221,1.350403,-0.244141,0.915527,22.412109,25.488281,-4.541016
2994081225,-0.456055,-0.172852,0.875488,1.029968,-0.335693,0.907898,22.412109,25.488281,-4.541016
2996662151,-0.458984,-0.171875,0.873047,1.762390,-0.251770,1.197815,22.412109,25.488281,-4.541016
3000181743,-0.458008,-0.173096,0.872559,1.358032,-0.228882,0.961304,22.412109,25.488281,-4.541016
3003080617,-0.459961,-0.174072,0.881592,1.792908,-0.007629,0.991821,22.412109,25.488281,-4.541016
3005580312,-0.457520,-0.179199,0.872559,1.953125,-0.076294,1.152039,22.412109,25.488281,-4.541016
3008129647,-0.457764,-0.179443,0.872803,2.037048,-0.083923,0.907898,22.412109,25.488281,-4.541016
3010635906,-0.460205,-0.182129,0.872559,2.670288,0.236511,1.060486,22.412109,25.488281,-4.541016
3013629959,-0.454834,-0.178955,0.876221,2.532959,0.183105,1.159668,21.899414,25.415039,-4.028320
3016129654,-0.451172,-0.185303,0.871338,2.731323,0.076294,1.205444,21.899414,25.415039,-4.028320
3018635502,-0.456055,-0.183838,0.866699,2.700806,0.167847,1.052856,21.899414,25.415039,-4.028320
3021251299,-0.456787,-0.185059,0.868408,2.456665,0.083923,1.258850,21.899414,25.415039,-4.028320
3024135404,-0.460205,-0.178223,0.866943,2.792358,0.457764,1.304626,21.899414,25.415039,-4.028320
3026722073,-0.460205,-0.180420,0.864258,2.662659,0.305176,1.625061,21.899414,25.415039,-4.028320
3029687819,-0.458740,-0.178467,0.864990,2.525330,0.106812,1.548767,21.899414,25.415039,-4.028320
3032232641,-0.458496,-0.175537,0.867676,2.571106,0.343323,1.647949,22.412109,24.755859,-3.808594
3035231208,-0.459717,-0.175293,0.862305,2.616882,0.190735,2.044678,22.412109,24.755859,-3.808594
3038267928,-0.460693,-0.172852,0.862793,2.784729,0.381470,1.846313,22.412109,24.755859,-3.808594
3041193059,-0.463379,-0.169678,0.867676,3.135681,-0.030518,1.937866,22.412109,24.755859,-3.808594
3044188754,-0.462402,-0.166748,0.865234,2.891541,0.251770,1.831055,22.412109,24.755859,-3.808594
3046736448,-0.458008,-0.163574,0.860596,2.937317,0.228882,2.296448,22.412109,24.755859,-3.808594
3049236963,-0.457520,-0.160156,0.867432,3.005981,-0.015259,2.029419,22.412109,24.755859,-3.808594
3052916556,-0.454834,-0.153564,0.873047,2.891541,0.244141,2.342224,22.485352,25.415039,-4.614258
3055867122,-0.455078,-0.156250,0.868896,2.677917,-0.022888,2.159119,22.485352,25.415039,-4.614258
3058867740,-0.452637,-0.156494,0.869141,2.388000,0.007629,2.265930,22.485352,25.415039,-4.614258
3061778512,-0.453857,-0.155029,0.882813,2.632141,0.061035,2.250671,22.485352,25.415039,-4.614258
3064873899,-0.455078,-0.155518,0.871338,2.349854,-0.068665,2.174377,22.485352,25.415039,-4.614258
3067833901,-0.454590,-0.150146,0.873535,2.426147,0.434875,2.326965,22.485352,25.415039,-4.614258
3070834109,-0.454590,-0.155029,0.874512,1.907349,0.427246,2.380371,22.485352,25.415039,-4.614258
3073863445,-0.455322,-0.151367,0.877686,2.143860,0.434875,2.105713,22.338867,24.829102,-4.614258
3077415448,-0.453857,-0.146729,0.875977,2.075195,1.060486,1.930237,22.338867,24.829102,-4.614258
3080418117,-0.457764,-0.151611,0.877686,2.143860,0.839233,1.640320,22.338867,24.829102,-4.614258
3083346940,-0.457031,-0.149170,0.873779,2.113342,0.831604,1.739502,22.338867,24.829102,-4.614258
3085836378,-0.459229,-0.152344,0.880859,1.831055,0.808716,1.716614,22.338867,24.829102,-4.614258
3088865303,-0.454590,-0.151611,0.881348,2.151489,0.930786,1.564026,22.338867,24.829102,-4.614258
3091844998,-0.457764,-0.151123,0.876465,1.983643,1.396179,1.388550,21.899414,25.415039,-3.295898
3094334436,-0.454590,-0.149658,0.877930,1.976013,0.976563,1.518250,21.899414,25.415039,-3.295898
3096890746,-0.457031,-0.156006,0.880371,1.945496,1.365662,1.510620,21.899414,25.415039,-3.295898
3099838030,-0.461426,-0.156982,0.876465,1.571655,1.670837,1.487732,21.899414,25.415039,-3.295898
3102503468,-0.463135,-0.154541,0.868896,1.396179,1.373291,1.564026,21.899414,25.415039,-3.295898
3105355163,-0.462158,-0.159424,0.872070,1.701355,1.296997,1.495361,21.899414,25.415039,-3.295898
3108444396,-0.461182,-0.156738,0.864502,1.670837,1.708984,1.342773,21.899414,25.415039,-3.295898
3111482758,-0.466064,-0.150146,0.869385,1.914978,1.449585,1.258850,21.899414,24.975586,-4.028320
3114480914,-0.464600,-0.147217,0.863037,2.014160,1.502991,1.243591,21.899414,24.975586,-4.028320
3117402352,-0.468750,-0.152588,0.858887,1.907349,1.640320,0.885010,21.899414,24.975586,-4.028320
3120487073,-0.468994,-0.148682,0.861084,1.747131,1.052856,1.182556,21.899414,24.975586,-4.028320
3123430665,-0.470703,-0.153320,0.858643,1.876831,1.258850,1.136780,21.899414,24.975586,-4.028320
3126409129,-0.473145,-0.151367,0.856445,1.922607,0.961304,0.900269,21.899414,24.975586,-4.028320
3128910464,-0.473145,-0.149902,0.858887,1.861572,0.946045,1.075745,21.899414,24.975586,-4.028320
3131419595,-0.471680,-0.150391,0.853027,1.678467,0.869751,1.022339,21.972656,25.048828,-4.541016
3133959084,-0.472656,-0.154297,0.851074,1.525879,0.808716,0.984192,21.972656,25.048828,-4.541016
3136457958,-0.474609,-0.152344,0.851318,1.373291,0.282288,0.900269,21.972656,25.048828,-4.541016
3138957652,-0.478271,-0.151123,0.852539,1.365662,0.221252,0.823975,21.972656,25.048828,-4.541016
3141511090,-0.473389,-0.152344,0.845703,1.083374,0.144958,0.846863,21.972656,25.048828,-4.541016
3144457964,-0.473145,-0.151367,0.855225,1.274109,0.038147,0.869751,21.972656,25.048828,-4.541016
3146961761,-0.473389,-0.152344,0.858643,1.365662,-0.068665,0.793457,21.972656,25.048828,-4.541016
3149546789,-0.473877,-0.155762,0.857910,1.274109,-0.068665,0.328064,21.972656,25.048828,-4.541016
3152562586,-0.474365,-0.153809,0.856934,1.625061,-0.167847,0.534058,21.679688,25.048828,-3.515625
3155061460,-0.473145,-0.156738,0.865723,1.502991,-0.389099,0.320435,21.679688,25.048828,-3.515625
3158056745,-0.470703,-0.160156,0.862793,1.884460,-0.328064,0.450134,21.679688,25.048828,-3.515625
3161008952,-0.464355,-0.163574,0.861572,1.541138,-0.404358,0.038147,21.679688,25.048828,-3.515625
3163578800,-0.462402,-0.165527,0.868164,1.922607,-0.442505,0.442505,21.679688,25.048828,-3.515625
3166555623,-0.469482,-0.165039,0.864014,1.579285,-0.572205,0.000000,21.679688,25.048828,-3.515625
3169061061,-0.460449,-0.165283,0.867676,1.724243,-0.740051,0.343323,21.679688,25.048828,-3.515625
3172074397,-0.461426,-0.171875,0.874268,1.861572,-0.305176,0.358582,22.338867,25.122070,-3.588867
3175114400,-0.460205,-0.168457,0.876709,1.785278,-0.480652,0.679016,22.338867,25.122070,-3.588867
3178144146,-0.464111,-0.174561,0.874756,2.143860,-0.335693,0.198364,22.338867,25.122070,-3.588867
3181125481,-0.460938,-0.172852,0.870850,2.273560,-0.205994,0.427246,22.338867,25.122070,-3.588867
3184158099,-0.461182,-0.169678,0.870361,2.548218,-0.152588,0.373840,22.338867,25.122070,-3.588867
3187147640,-0.459961,-0.173584,0.874756,2.410889,0.061035,0.282288,22.338867,25.122070,-3.588867
3190626617,-0.461182,-0.168457,0.875977,2.586365,0.022888,0.404358,22.338867,25.122070,-3.588867
3193132466,-0.460938,-0.167480,0.875000,2.532959,0.221252,0.488281,22.192383,24.975586,-3.588867
3195671545,-0.455566,-0.167480,0.871338,2.929688,-0.015259,0.755310,22.192383,24.975586,-3.588867
3198162624,-0.459717,-0.163818,0.870605,2.723694,-0.144958,0.602722,22.192383,24.975586,-3.588867
3200711959,-0.458740,-0.163330,0.873779,2.342224,0.137329,0.724792,22.192383,24.975586,-3.588867
3203686731,-0.460449,-0.162842,0.867432,2.403259,0.320435,0.793457,22.192383,24.975586,-3.588867
3206186835,-0.461426,-0.161133,0.866943,2.197266,0.305176,0.961304,22.192383,24.975586,-3.588867
3209267864,-0.458008,-0.166016,0.871338,2.075195,0.572205,1.091003,22.192383,24.975586,-3.588867
3212251661,-0.457764,-0.160156,0.868652,2.235413,0.373840,1.075745,22.265625,24.755859,-3.808594
3215321202,-0.459961,-0.164307,0.873291,2.098083,0.244141,1.129150,22.265625,24.755859,-3.808594
3218327974,-0.463623,-0.159912,0.868896,1.884460,0.312805,1.106262,22.265625,24.755859,-3.808594
3221242027,-0.464355,-0.162598,0.869873,1.792908,0.625610,1.159668,22.265625,24.755859,-3.808594
3223784388,-0.464600,-0.163086,0.864990,1.579285,0.450134,1.235962,22.265625,24.755859,-3.808594
3226284493,-0.463379,-0.160889,0.866211,1.968384,0.473022,1.068115,22.265625,24.755859,-3.808594
3228787469,-0.464844,-0.163818,0.862549,1.930237,0.251770,1.205444,22.265625,24.755859,-3.808594
3231322446,-0.466797,-0.165039,0.862305,1.846313,0.633240,1.365662,22.338867,25.122070,-4.467773
3234323884,-0.462891,-0.165039,0.870850,2.082825,0.259399,1.243591,22.338867,25.122070,-4.467773
3237362246,-0.461426,-0.163086,0.868164,1.922607,0.183105,0.968933,22.338867,25.122070,-4.467773
3240378863,-0.459229,-0.166748,0.861084,1.953125,0.373840,1.251221,22.338867,25.122070,-4.467773
3243360199,-0.462402,-0.169434,0.858643,2.052307,0.129700,1.083374,22.338867,25.122070,-4.467773
3246386253,-0.461426,-0.169922,0.864014,2.082825,0.038147,1.045227,22.338867,25.122070,-4.467773
3249407794,-0.462158,-0.172119,0.865234,2.342224,0.061035,1.289368,22.338867,25.122070,-4.467773
3252452309,-0.460938,-0.175537,0.869141,2.677917,-0.091553,1.182556,22.412109,25.634766,-4.101563
3255384004,-0.461426,-0.170166,0.862061,2.586365,0.083923,0.900269,22.412109,25.634766,-4.101563
3258886776,-0.457275,-0.174072,0.866943,3.067017,0.083923,1.220703,22.412109,25.634766,-4.101563
3261850061,-0.458984,-0.168945,0.872559,3.143311,0.144958,1.029968,21.899414,25.122070,-4.174805
3264945448,-0.457764,-0.170410,0.863525,3.089905,0.083923,0.984192,21.899414,25.122070,-4.174805
3267989553,-0.458740,-0.168213,0.864990,3.524780,0.274658,1.251221,21.899414,25.122070,-4.174805
3271443504,-0.461426,-0.165527,0.872314,3.326416,0.244141,1.029968,22.631836,24.682617,-4.174805
3274414584,-0.456299,-0.164551,0.865234,3.349304,0.328064,1.091003,22.631836,24.682617,-4.174805
3277445150,-0.460205,-0.163818,0.869873,3.440857,0.289917,1.083374,22.631836,24.682617,-4.174805
3280412127,-0.459473,-0.159912,0.869629,3.402710,0.259399,1.174927,22.558594,24.755859,-3.955078
3282988129,-0.460938,-0.154053,0.875000,3.463745,0.175476,1.075745,22.558594,24.755859,-3.955078
3285912439,-0.464844,-0.152100,0.873535,3.326416,0.205994,1.327515,22.558594,24.755859,-3.955078
3288417877,-0.459717,-0.147949,0.867432,3.562927,0.564575,1.014709,22.558594,24.755859,-3.955078
3291421367,-0.463867,-0.151123,0.869141,3.158569,0.274658,1.213074,21.972656,25.341797,-3.662109
3293963318,-0.463867,-0.142578,0.856445,3.295898,0.030518,1.014709,21.972656,25.341797,-3.662109
3296462191,-0.465576,-0.143799,0.861816,3.173828,0.396729,1.213074,21.972656,25.341797,-3.662109
3298996758,-0.463867,-0.139893,0.862793,3.051758,0.267029,1.121521,21.972656,25.341797,-3.662109
3302071222,-0.464111,-0.140381,0.860352,2.799988,0.297546,1.136780,22.705078,24.755859,-3.955078
3305011942,-0.464111,-0.142090,0.862305,2.380371,0.122070,0.938416,22.705078,24.755859,-3.955078
3308597586,-0.468750,-0.143311,0.856201,2.189636,-0.053406,1.045227,22.705078,24.755859,-3.955078
3311518614,-0.465820,-0.139404,0.853516,1.869202,0.015259,0.923157,22.778320,25.122070,-3.881836
3314513078,-0.462646,-0.141602,0.862549,2.006531,0.137329,0.762939,22.778320,25.122070,-3.881836
3317047234,-0.467529,-0.144287,0.862305,1.869202,-0.251770,1.091003,22.778320,25.122070,-3.881836
3320035544,-0.467041,-0.141357,0.859375,1.716614,-0.221252,0.892639,21.752930,25.122070,-3.881836
3322527444,-0.468262,-0.149902,0.859131,1.602173,-0.289917,0.907898,21.752930,25.854492,-3.735352
3325063241,-0.466064,-0.148438,0.861572,1.327515,-0.503540,0.709534,21.752930,25.854492,-3.735352
3328112269,-0.461670,-0.151611,0.868164,1.594543,-0.534058,0.717163,21.752930,25.854492,-3.735352
3331109194,-0.462402,-0.155273,0.867432,1.167297,-0.480652,0.770569,21.752930,25.708008,-3.735352
3334039248,-0.461670,-0.155762,0.866211,1.358032,-0.526428,0.686646,21.752930,25.708008,-3.735352
3336554942,-0.459717,-0.161133,0.867432,1.190186,-0.755310,0.717163,21.752930,25.708008,-3.735352
3339130124,-0.466309,-0.159668,0.872559,1.457214,-0.144958,0.801086,21.752930,25.708008,-3.735352
3342109819,-0.462646,-0.157715,0.866699,1.457214,-0.427246,0.816345,22.558594,25.341797,-3.808594
3345155565,-0.460205,-0.160645,0.867920,1.564026,-0.427246,0.694275,22.558594,25.341797,-3.808594
3348096695,-0.458740,-0.162354,0.872314,1.708984,-0.221252,0.648499,22.558594,25.341797,-3.808594
3350614851,-0.454346,-0.163086,0.874268,1.945496,-0.236511,0.846863,22.485352,25.122070,-4.467773
3353605213,-0.457275,-0.162109,0.874023,1.670837,-0.114441,0.541687,22.485352,25.122070,-4.467773
3356174651,-0.462158,-0.163330,0.879883,2.372742,-0.053406,0.762939,22.485352,25.122070,-4.467773
3359108807,-0.456787,-0.158447,0.873779,2.174377,-0.221252,0.419617,22.485352,25.122070,-4.467773
3361615476,-0.461426,-0.166016,0.878418,1.953125,-0.053406,0.694275,22.485352,24.536133,-3.881836
3364611581,-0.456299,-0.162842,0.883545,2.540588,-0.221252,0.610352,22.485352,24.536133,-3.881836
3367161737,-0.455566,-0.162598,0.875732,2.380371,-0.144958,0.549316,22.485352,24.536133,-3.881836
3369743072,-0.456543,-0.163086,0.875732,2.746582,-0.038147,0.885010,22.265625,25.195313,-3.662109
3372658357,-0.455078,-0.164795,0.876221,2.296448,0.022888,0.595093,22.265625,25.195313,-3.662109
3375660615,-0.458008,-0.158936,0.880127,2.494812,0.213623,0.556946,22.265625,25.195313,-3.662109
3378157438,-0.453369,-0.162109,0.875244,2.548218,0.000000,0.831604,22.265625,25.195313,-3.662109
3380680107,-0.456543,-0.162354,0.863770,2.471924,-0.144958,0.648499,21.826172,25.048828,-3.662109
3383204416,-0.455322,-0.163818,0.870361,2.487183,0.312805,0.862122,21.826172,25.048828,-3.662109
3386181650,-0.456299,-0.162842,0.872314,2.662659,0.007629,0.740051,21.826172,25.048828,-3.662109
3388679293,-0.455566,-0.163574,0.870117,2.677917,0.297546,0.885010,21.826172,25.048828,-3.662109
3391249962,-0.455078,-0.161133,0.867432,2.494812,-0.083923,0.778198,22.192383,25.415039,-3.735352
3394189861,-0.454346,-0.161865,0.873779,2.624512,0.152588,1.014709,22.192383,25.415039,-3.735352
3396731812,-0.454102,-0.165527,0.862793,2.883911,0.091553,1.060486,22.192383,25.415039,-3.735352
3399769763,-0.457031,-0.159912,0.874512,2.433777,0.259399,1.113892,22.119141,25.195313,-4.101563
3402804843,-0.458008,-0.160156,0.866455,2.113342,0.236511,1.106262,22.119141,25.195313,-4.101563
3405311922,-0.454590,-0.158203,0.870117,2.716064,0.259399,1.083374,22.119141,25.195313,-4.101563
3408360950,-0.461670,-0.153809,0.874023,2.365112,0.076294,0.915527,22.119141,25.195313,-4.101563
3411360337,-0.463867,-0.154541,0.871094,2.677917,0.411987,0.991821,22.119141,25.195313,-4.101563
3414370391,-0.458740,-0.156494,0.866943,2.441406,0.236511,1.129150,22.119141,25.195313,-4.101563
3417832958,-0.463867,-0.156250,0.857666,2.029419,0.457764,0.755310,22.119141,25.195313,-4.101563
3421302499,-0.464600,-0.149414,0.859131,2.494812,-0.053406,0.717163,22.192383,25.268555,-3.735352
3423768963,-0.466064,-0.151367,0.863525,2.632141,0.144958,0.793457,22.192383,25.268555,-3.735352
3426337580,-0.465088,-0.153076,0.864502,2.372742,0.282288,0.747681,22.192383,25.268555,-3.735352
3429332044,-0.466309,-0.150879,0.866211,2.426147,0.137329,0.846863,22.192383,25.268555,-3.735352
3432369995,-0.465332,-0.152832,0.859863,2.494812,0.213623,0.526428,22.192383,25.268555,-3.735352
3435330408,-0.465088,-0.152832,0.858154,2.365112,0.000000,0.473022,22.192383,25.268555,-3.735352
3437832564,-0.463623,-0.154785,0.869385,2.265930,-0.122070,0.663757,22.192383,25.268555,-3.735352
3440338822,-0.460449,-0.156738,0.862793,2.166748,-0.358582,0.267029,21.752930,25.268555,-3.588867
3442843440,-0.460938,-0.159912,0.867432,2.044678,-0.282288,0.526428,21.752930,25.268555,-3.588867
3445348878,-0.461670,-0.157959,0.864990,2.281189,-0.343323,0.679016,21.752930,25.268555,-3.588867
3447835034,-0.457764,-0.160889,0.866699,2.182007,-0.083923,0.671387,21.752930,25.268555,-3.588867
3450339241,-0.461914,-0.158447,0.870361,2.143860,-0.442505,0.518799,21.752930,25.268555,-3.588867
3452886525,-0.462402,-0.160400,0.874512,2.090454,-0.297546,0.823975,21.752930,25.268555,-3.588867
3455387450,-0.456055,-0.161865,0.868652,2.380371,-0.267029,0.846863,21.752930,25.268555,-3.588867
3457917914,-0.458496,-0.160645,0.875488,2.128601,-0.289917,1.075745,21.752930,25.268555,-3.588867
3460891044,-0.458984,-0.159424,0.869141,2.449036,-0.320435,0.885010,21.826172,25.634766,-4.541016
3463966739,-0.456299,-0.159424,0.874023,2.128601,0.190735,0.938416,21.826172,25.634766,-4.541016
3467015357,-0.453125,-0.160156,0.878174,2.220154,-0.366211,1.152039,21.826172,25.634766,-4.541016
3470436898,-0.453857,-0.158447,0.878418,2.311707,0.396729,1.007080,21.826172,25.634766,-4.541016
