
Run: 1 Realtime: 0 Accel sens: 2 Gyro sens: 250

Time Captured,Accel X,Accel Y,Accel Z,Gyro X,Gyro Y,Gyro Z,Magn X,Magn Y,Magn Z
2980925,-0.461670,-0.193848,0.865723,0.640869,-0.289917,0.099182,22.705078,24.902344,-4.541016
5883081,-0.464355,-0.193359,0.860840,1.182556,-0.450134,0.480652,22.705078,24.902344,-4.541016
8402058,-0.466553,-0.193848,0.855225,1.152039,-0.518799,0.236511,22.705078,24.902344,-4.541016
10884932,-0.466064,-0.190918,0.862549,1.144409,-0.953674,0.267029,22.778320,24.975586,-4.028320
13381754,-0.463135,-0.196289,0.864258,1.426697,-0.579834,0.366211,22.778320,24.975586,-4.028320
15883910,-0.462891,-0.198486,0.860352,1.525879,-0.701904,0.198364,22.778320,24.975586,-4.028320
18406989,-0.460449,-0.195068,0.855957,1.251221,-0.808716,0.160217,22.778320,24.975586,-4.028320
21411299,-0.455811,-0.196289,0.866455,1.152039,-0.686646,0.129700,22.924805,24.682617,-4.321289
23913045,-0.456299,-0.195313,0.858643,1.205444,-0.648499,0.541687,22.924805,24.682617,-4.321289
26453355,-0.451660,-0.194824,0.864258,1.098633,-0.831604,0.305176,22.924805,24.682617,-4.321289
28952639,-0.452148,-0.197266,0.862305,1.251221,-1.052856,0.526428,22.338867,25.122070,-3.735352
31455205,-0.449219,-0.193848,0.856934,0.991821,-0.923157,0.389099,22.338867,25.122070,-3.735352
33956950,-0.446045,-0.197754,0.861572,1.045227,-1.060486,0.595093,22.338867,25.122070,-3.735352
36459106,-0.443604,-0.191650,0.855469,1.197815,-0.907898,0.671387,22.338867,25.122070,-3.735352
38957160,-0.443359,-0.192139,0.860840,1.083374,-1.136780,0.671387,22.338867,25.122070,-3.735352
41467110,-0.435303,-0.190918,0.863525,1.213074,-1.228333,0.648499,22.412109,24.902344,-3.515625
44485780,-0.438721,-0.191650,0.860107,1.335144,-0.961304,0.541687,22.412109,24.902344,-3.515625
47469577,-0.443604,-0.185059,0.864502,1.266479,-0.778198,0.549316,22.412109,24.902344,-3.515625
50007835,-0.437988,-0.184570,0.866699,1.098633,-0.816345,0.343323,22.998047,24.755859,-4.248047
52565376,-0.437744,-0.189453,0.865723,1.235962,-0.633240,0.419617,22.998047,24.755859,-4.248047
55597584,-0.437256,-0.190430,0.870117,1.182556,-0.549316,0.556946,22.998047,24.755859,-4.248047
58510406,-0.434326,-0.187500,0.873535,1.403809,-0.396729,0.663757,22.998047,24.755859,-4.248047
61010511,-0.439209,-0.183594,0.867188,1.502991,-0.350952,0.320435,22.998047,24.902344,-4.101563
63558205,-0.439209,-0.187500,0.876709,1.419067,-0.175476,0.587463,22.998047,24.902344,-4.101563
66062823,-0.441162,-0.184082,0.870117,1.678467,-0.045776,0.350952,22.998047,24.902344,-4.101563
68574825,-0.440674,-0.192871,0.873291,1.235962,-0.068665,0.411987,22.998047,24.902344,-4.101563
71067135,-0.442383,-0.184814,0.885986,1.792908,-0.083923,0.404358,23.364258,24.829102,-4.467773
74061188,-0.440918,-0.188477,0.873535,1.586914,0.274658,0.366211,23.364258,24.829102,-4.467773
76642114,-0.443359,-0.183350,0.879150,1.594543,0.091553,0.068665,23.364258,24.829102,-4.467773
79640270,-0.444092,-0.187256,0.875244,1.846313,0.686646,0.617981,22.851563,24.755859,-4.101563
82639247,-0.446045,-0.186279,0.871582,1.754761,0.457764,0.358582,22.851563,24.755859,-4.101563
85699762,-0.453369,-0.184814,0.877930,1.892090,0.198364,0.122070,22.851563,24.755859,-4.101563
88621200,-0.452881,-0.185303,0.876709,1.556396,0.587463,0.564575,22.851563,24.755859,-4.101563
91111869,-0.454346,-0.185791,0.872803,1.373291,0.350952,0.099182,22.851563,24.755859,-4.101563
93611974,-0.457764,-0.185547,0.874512,1.449585,0.366211,0.267029,22.851563,24.755859,-4.101563
96111668,-0.449951,-0.185791,0.869629,1.647949,0.480652,0.205994,22.851563,24.755859,-4.101563
98614234,-0.455078,-0.185303,0.877197,1.289368,0.717163,0.190735,22.851563,24.755859,-4.101563
101112288,-0.456787,-0.192139,0.871582,1.716614,0.236511,0.396729,23.144531,24.316406,-3.955078
103667367,-0.450439,-0.188721,0.873535,1.419067,0.534058,0.114441,23.144531,24.316406,-3.955078
106167471,-0.450439,-0.187256,0.867188,1.327515,0.671387,0.152588,23.144531,24.316406,-3.955078
108663063,-0.455566,-0.183350,0.869873,1.312256,0.465393,0.389099,23.144531,24.316406,-3.955078
111160296,-0.448975,-0.189697,0.874268,1.144409,0.419617,0.251770,23.144531,24.316406,-3.955078
113700606,-0.447998,-0.189209,0.865723,1.396179,0.679016,0.427246,23.144531,24.316406,-3.955078
116665531,-0.449707,-0.189941,0.864990,0.877380,0.541687,0.480652,23.144531,24.316406,-3.955078
119210764,-0.447754,-0.194824,0.863770,1.220703,0.312805,0.679016,22.924805,24.829102,-4.174805
121662048,-0.444336,-0.190430,0.869629,0.999451,0.549316,0.602722,22.924805,24.829102,-4.174805
124162153,-0.442871,-0.193115,0.870850,0.930786,0.648499,0.663757,22.924805,24.829102,-4.174805
126709437,-0.442383,-0.192627,0.865967,1.014709,0.617981,0.549316,22.924805,24.829102,-4.174805
129212003,-0.442139,-0.193359,0.886963,0.907898,0.663757,0.984192,22.924805,24.829102,-4.174805
131787595,-0.441895,-0.193359,0.878418,1.014709,0.732422,1.014709,22.924805,24.829102,-4.174805
134714366,-0.447510,-0.198242,0.878418,0.984192,0.900269,1.075745,22.924805,24.829102,-4.174805
137217343,-0.435547,-0.198242,0.884521,0.991821,0.946045,1.129150,22.924805,24.829102,-4.174805
139712524,-0.436035,-0.192139,0.874512,0.694275,0.976563,0.892639,22.924805,24.975586,-4.028320
142259809,-0.438477,-0.190918,0.880127,0.907898,1.274109,1.159668,22.924805,24.975586,-4.028320
144758682,-0.436035,-0.191650,0.878906,0.656128,1.403809,1.205444,22.924805,24.975586,-4.028320
147260428,-0.438477,-0.192139,0.878906,0.839233,1.068115,1.075745,22.924805,24.975586,-4.028320
150309046,-0.443115,-0.190186,0.880615,1.007080,1.502991,1.304626,22.924805,24.975586,-4.028320
153262894,-0.438965,-0.185303,0.880371,0.564575,1.823425,1.373291,22.924805,24.975586,-4.028320
155761358,-0.440430,-0.193359,0.882568,0.198364,1.564026,1.106262,22.924805,24.975586,-4.028320
158309463,-0.439209,-0.188477,0.876465,0.503540,1.670837,1.373291,22.924805,24.975586,-4.028320
160809978,-0.447754,-0.189697,0.871338,0.915527,2.319336,1.335144,22.778320,24.975586,-4.028320
163337569,-0.445068,-0.186768,0.878906,0.572205,2.075195,1.091003,22.778320,24.975586,-4.028320
166309880,-0.453125,-0.190918,0.880615,0.846863,2.357483,1.113892,22.778320,24.975586,-4.028320
168814087,-0.450928,-0.185303,0.873047,0.717163,2.136230,0.984192,22.778320,24.975586,-4.028320
171312550,-0.453125,-0.185547,0.864258,0.747681,2.532959,1.098633,22.778320,24.975586,-4.028320
173811834,-0.458496,-0.184326,0.864258,0.701904,2.082825,0.961304,22.778320,24.975586,-4.028320
176316042,-0.457275,-0.187500,0.861328,0.839233,2.441406,0.854492,22.778320,24.975586,-4.028320
179315429,-0.461670,-0.191406,0.861084,0.991821,2.395630,0.762939,22.851563,25.195313,-4.248047
181863944,-0.464844,-0.189453,0.855225,0.907898,2.197266,0.534058,22.851563,25.195313,-4.248047
184364869,-0.463867,-0.191650,0.857422,0.816345,1.945496,0.808716,22.851563,25.195313,-4.248047
186860871,-0.467529,-0.192627,0.849854,0.701904,1.960754,0.816345,22.851563,25.195313,-4.248047
189363027,-0.466797,-0.193115,0.847168,0.801086,1.998901,0.526428,22.851563,25.195313,-4.248047
191861901,-0.461426,-0.197021,0.849121,0.762939,1.541138,0.801086,22.851563,25.195313,-4.248047
194366928,-0.464355,-0.199219,0.845703,0.747681,1.312256,0.816345,22.851563,25.195313,-4.248047
196862110,-0.469971,-0.202881,0.843750,0.701904,1.266479,0.946045,22.851563,25.195313,-4.248047
199409394,-0.471436,-0.199707,0.846191,0.816345,0.961304,1.098633,22.558594,25.048828,-4.248047
201910729,-0.467529,-0.195313,0.845703,0.709534,0.640869,1.251221,22.558594,25.048828,-4.248047
204412885,-0.468506,-0.197510,0.847900,0.770569,0.724792,1.060486,22.558594,25.048828,-4.248047
206909708,-0.463379,-0.198730,0.845947,0.541687,0.450134,0.938416,22.558594,25.048828,-4.248047
209411864,-0.468262,-0.202881,0.848633,0.679016,0.274658,1.205444,22.558594,25.048828,-4.248047
211914020,-0.461914,-0.201416,0.850830,0.740051,-0.122070,1.464844,22.558594,25.048828,-4.248047
214418637,-0.462402,-0.198730,0.848877,0.839233,0.213623,1.136780,22.558594,25.048828,-4.248047
216992178,-0.459961,-0.198486,0.852783,0.831604,-0.389099,1.571655,22.558594,25.048828,-4.248047
219965308,-0.457275,-0.200195,0.856445,0.747681,-0.076294,1.358032,23.583984,25.195313,-4.248047
222962234,-0.457764,-0.199707,0.865479,0.762939,-0.099182,1.235962,23.583984,25.195313,-4.248047
225461518,-0.451416,-0.197021,0.867432,0.946045,-0.549316,1.403809,23.583984,25.195313,-4.248047
227961622,-0.449463,-0.200439,0.869141,0.511169,-0.457764,1.411438,23.583984,25.195313,-4.248047
230463368,-0.445313,-0.197754,0.877197,0.877380,-0.144958,1.350403,23.583984,25.195313,-4.248047
233040191,-0.445557,-0.197510,0.873535,1.213074,-0.335693,1.571655,23.583984,25.195313,-4.248047
236013732,-0.444336,-0.196045,0.875244,1.182556,-0.152588,1.312256,23.583984,25.195313,-4.248047
239010247,-0.441650,-0.197510,0.874023,1.205444,-0.198364,1.350403,22.705078,25.048828,-4.101563
241509531,-0.445313,-0.195068,0.882080,1.274109,0.282288,1.487732,22.705078,25.048828,-4.101563
244011277,-0.444336,-0.196533,0.879150,1.129150,0.144958,1.167297,22.705078,25.048828,-4.101563
246510971,-0.441406,-0.197266,0.878418,1.358032,0.595093,1.190186,22.705078,25.048828,-4.101563
249049640,-0.448242,-0.192627,0.880859,1.487732,0.488281,0.999451,22.705078,25.048828,-4.101563
252069540,-0.445801,-0.196045,0.874756,1.594543,0.747681,0.984192,22.705078,25.048828,-4.101563
254511388,-0.444336,-0.189941,0.881348,1.754761,0.602722,0.915527,22.705078,25.048828,-4.101563
257100518,-0.450684,-0.193359,0.871826,1.358032,0.869751,1.129150,22.705078,25.048828,-4.101563
260063392,-0.449707,-0.191650,0.869629,1.708984,1.106262,0.915527,22.851563,24.609375,-4.101563
262562266,-0.451904,-0.192871,0.870605,1.739502,1.213074,0.846863,22.851563,24.609375,-4.101563
265142371,-0.452393,-0.193359,0.866455,1.617432,0.953674,0.991821,22.851563,24.609375,-4.101563
268096630,-0.454590,-0.194824,0.858643,1.953125,0.801086,0.503540,22.851563,24.609375,-4.101563
271192837,-0.455566,-0.197998,0.856934,1.808167,1.205444,0.717163,22.851563,24.609375,-4.101563
274190173,-0.454834,-0.190186,0.859131,1.655579,1.098633,0.747681,22.851563,24.609375,-4.101563
277192842,-0.458252,-0.195068,0.859375,2.059937,0.686646,0.411987,22.851563,24.609375,-4.101563
280688230,-0.455566,-0.199951,0.861084,1.869202,0.984192,0.823975,22.924805,24.682617,-3.735352
283717566,-0.455811,-0.200195,0.862793,2.197266,0.793457,0.701904,22.924805,24.682617,-3.735352
286696030,-0.460449,-0.200928,0.855225,2.410889,0.892639,0.427246,22.924805,24.682617,-3.735352
290182802,-0.458252,-0.195557,0.865234,2.342224,0.732422,0.808716,22.778320,24.682617,-4.907227
293240855,-0.456787,-0.190186,0.859863,2.372742,0.808716,0.740051,22.778320,24.682617,-4.907227
296164755,-0.454346,-0.195557,0.855957,2.693176,0.740051,0.823975,22.778320,24.682617,-4.907227
298732552,-0.458008,-0.189697,0.860840,2.532959,0.495911,0.877380,23.510742,24.243164,-4.467773
301219939,-0.454590,-0.196289,0.864990,2.334595,0.640869,0.755310,23.510742,24.243164,-4.467773
304170916,-0.450684,-0.188477,0.867676,2.639771,0.457764,0.679016,23.510742,24.243164,-4.467773
306676764,-0.451660,-0.187744,0.864502,2.212524,0.701904,0.816345,23.510742,24.243164,-4.467773
309171945,-0.447266,-0.187500,0.866943,2.609253,0.091553,0.930786,22.778320,24.829102,-4.467773
311690512,-0.445801,-0.185303,0.871338,2.197266,0.503540,1.091003,22.778320,24.829102,-4.467773
314191027,-0.447754,-0.186035,0.875244,2.220154,0.434875,0.877380,22.778320,24.829102,-4.467773
316691131,-0.451660,-0.181396,0.872314,2.128601,0.328064,1.251221,22.778320,24.829102,-4.467773
319242108,-0.445557,-0.185059,0.868408,2.136230,0.701904,0.938416,23.510742,24.975586,-4.028320
321693392,-0.444824,-0.179443,0.879883,2.235413,0.793457,1.022339,23.510742,24.975586,-4.028320
324239035,-0.440918,-0.178955,0.877930,1.960754,0.640869,0.885010,23.510742,24.975586,-4.028320
326824063,-0.443848,-0.182861,0.883301,1.998901,0.915527,1.205444,23.510742,24.975586,-4.028320
329742219,-0.440430,-0.179199,0.877686,1.945496,1.091003,1.098633,23.144531,25.341797,-3.955078
332321093,-0.439941,-0.179932,0.874512,2.113342,1.266479,1.174927,23.144531,25.341797,-3.955078
335314326,-0.439941,-0.184082,0.880615,2.006531,1.480103,0.930786,23.144531,25.341797,-3.955078
338319046,-0.441650,-0.181152,0.877686,1.617432,1.586914,1.022339,22.924805,24.682617,-4.760742
341792690,-0.446289,-0.182617,0.876709,1.632690,1.678467,0.999451,22.924805,24.682617,-4.760742
344289103,-0.444092,-0.178955,0.875244,1.609802,2.014160,0.740051,22.924805,24.682617,-4.760742
346829412,-0.446289,-0.181641,0.873291,1.663208,1.892090,0.770569,22.924805,24.682617,-4.760742
349790235,-0.453125,-0.176514,0.876465,1.731873,2.075195,0.732422,22.778320,24.389648,-4.614258
352311673,-0.451416,-0.180176,0.872070,1.441956,1.937866,0.633240,22.778320,24.389648,-4.614258
354872496,-0.453857,-0.183105,0.870605,2.082825,1.953125,0.663757,22.778320,24.389648,-4.614258
357868191,-0.459717,-0.182617,0.869873,1.472473,2.067566,0.450134,22.778320,24.389648,-4.614258
360844603,-0.462646,-0.185059,0.872314,1.464844,1.983643,0.541687,22.778320,24.389648,-4.614258
363370964,-0.464355,-0.177490,0.863281,1.426697,2.059937,0.579834,22.778320,24.389648,-4.614258
366422044,-0.462158,-0.181396,0.859619,1.174927,2.006531,0.648499,22.778320,24.389648,-4.614258
369417739,-0.465088,-0.182617,0.858398,1.129150,1.937866,0.343323,23.510742,24.536133,-4.467773
372342869,-0.466553,-0.178955,0.855469,1.235962,1.747131,0.526428,23.510742,24.536133,-4.467773
374843384,-0.468262,-0.180664,0.849365,0.877380,1.663208,0.396729,23.510742,24.536133,-4.467773
377343899,-0.468994,-0.182617,0.854248,0.755310,1.380920,0.427246,23.510742,24.536133,-4.467773
379889542,-0.463379,-0.180176,0.845215,0.900269,1.136780,0.389099,23.510742,24.536133,-4.467773
382390877,-0.463379,-0.182373,0.854736,0.633240,0.968933,0.251770,23.510742,24.536133,-4.467773
384973854,-0.465576,-0.181396,0.845947,0.648499,1.182556,0.289917,23.510742,24.536133,-4.467773
387916625,-0.460449,-0.179688,0.847900,0.526428,1.014709,0.114441,23.291016,24.902344,-4.687500
390900833,-0.457764,-0.183105,0.850098,0.267029,0.610352,0.251770,23.291016,24.902344,-4.687500
393391502,-0.461426,-0.184082,0.848389,0.511169,0.747681,0.274658,23.291016,24.902344,-4.687500
395924017,-0.462158,-0.187988,0.846436,0.297546,0.602722,0.053406,23.291016,24.902344,-4.687500
398942276,-0.458984,-0.183838,0.851074,0.534058,0.404358,0.205994,23.291016,24.902344,-4.687500
401445662,-0.463135,-0.185791,0.856201,0.473022,0.312805,0.045776,23.291016,24.902344,-4.687500
403942075,-0.457764,-0.190918,0.854248,0.320435,0.045776,0.244141,23.291016,24.902344,-4.687500
406438487,-0.452881,-0.192383,0.859375,0.595093,0.350952,0.175476,23.291016,24.902344,-4.687500
408944745,-0.455811,-0.195068,0.869873,0.411987,0.236511,0.175476,23.144531,24.902344,-4.248047
411472337,-0.454590,-0.193359,0.860840,0.282288,0.335693,-0.114441,23.144531,24.902344,-4.248047
414015929,-0.453125,-0.195068,0.864990,0.640869,0.122070,0.030518,23.144531,24.902344,-4.248047
416991931,-0.455811,-0.201416,0.867432,0.488281,0.373840,0.076294,23.144531,24.902344,-4.248047
419521574,-0.454102,-0.198975,0.864014,0.877380,0.434875,0.259399,23.144531,24.902344,-4.248047
422520551,-0.456543,-0.199219,0.872070,0.740051,0.343323,0.473022,23.144531,24.902344,-4.248047
426030708,-0.458496,-0.201172,0.876953,1.029968,0.518799,-0.030518,23.144531,24.902344,-4.248047
428495120,-0.451172,-0.199463,0.876953,0.946045,0.640869,0.289917,23.144531,25.634766,-4.980469
430991943,-0.452637,-0.201904,0.872070,1.091003,0.892639,0.175476,23.144531,25.634766,-4.980469
433500663,-0.449219,-0.199707,0.868896,1.258850,0.740051,0.167847,23.144531,25.634766,-4.980469
436075844,-0.452148,-0.200684,0.875244,1.136780,0.770569,0.236511,23.144531,25.634766,-4.980469
439042821,-0.453125,-0.200928,0.866699,1.037598,0.915527,0.022888,23.144531,25.634766,-4.980469
441538413,-0.452881,-0.199951,0.869873,1.586914,1.113892,0.251770,23.144531,25.634766,-4.980469
444041800,-0.451904,-0.204102,0.868652,1.640320,0.854492,0.350952,23.144531,25.634766,-4.980469
446541494,-0.456787,-0.205811,0.872070,1.670837,1.106262,0.099182,23.144531,25.634766,-4.980469
449044060,-0.453369,-0.204834,0.870117,1.960754,1.007080,0.289917,23.217773,25.122070,-4.028320
451596678,-0.449707,-0.200195,0.866699,1.991272,0.915527,0.427246,23.217773,25.122070,-4.028320
454591142,-0.452393,-0.197754,0.859619,1.785278,1.144409,0.267029,23.217773,25.122070,-4.028320
457090016,-0.452881,-0.198730,0.856934,1.785278,1.136780,0.419617,23.217773,25.122070,-4.028320
459591351,-0.455078,-0.199951,0.863281,1.976013,1.266479,0.480652,23.217773,25.122070,-4.028320
462093507,-0.452148,-0.203369,0.856689,1.899719,1.106262,0.480652,23.217773,25.122070,-4.028320
464671971,-0.455811,-0.199219,0.860596,1.960754,0.747681,0.686646,23.217773,25.122070,-4.028320
468128794,-0.463379,-0.195801,0.854492,2.273560,1.197815,0.434875,23.071289,24.975586,-4.174805
471143360,-0.461914,-0.199707,0.853760,2.105713,0.984192,0.404358,23.071289,24.975586,-4.174805
473720593,-0.460693,-0.198242,0.849365,2.243042,1.014709,0.640869,23.071289,24.975586,-4.174805
476723262,-0.462158,-0.198975,0.857178,1.953125,0.602722,0.556946,23.071289,24.975586,-4.174805
479720188,-0.459961,-0.192383,0.857910,2.113342,0.877380,0.457764,23.071289,24.975586,-4.174805
483192191,-0.463867,-0.199463,0.856201,2.258301,0.511169,0.610352,23.071289,24.975586,-4.174805
485648808,-0.462158,-0.194092,0.854004,2.143860,0.572205,0.648499,23.071289,24.975586,-4.174805
488140708,-0.460693,-0.195313,0.859863,2.212524,0.526428,0.701904,23.291016,25.048828,-4.248047
491213941,-0.457764,-0.198730,0.850830,2.326965,0.411987,0.846863,23.291016,25.048828,-4.248047
493764097,-0.458008,-0.194580,0.862793,2.204895,0.297546,0.534058,23.291016,25.048828,-4.248047
497216407,-0.455322,-0.192383,0.859131,2.334595,0.335693,0.663757,23.291016,25.048828,-4.248047
500197333,-0.457031,-0.194336,0.860107,2.563477,0.274658,0.480652,23.291016,25.048828,-4.248047
502695797,-0.451416,-0.193115,0.862549,2.296448,0.419617,0.534058,23.291016,25.048828,-4.248047
505193440,-0.451416,-0.194824,0.865723,2.197266,0.320435,0.434875,23.291016,25.048828,-4.248047
507697237,-0.450928,-0.191895,0.872070,2.449036,0.312805,0.640869,23.364258,24.389648,-4.467773
510240008,-0.452148,-0.188965,0.869629,2.319336,0.167847,0.640869,23.364258,24.389648,-4.467773
512741754,-0.451172,-0.192627,0.866943,2.418518,0.198364,0.717163,23.364258,24.389648,-4.467773
515743192,-0.449707,-0.188721,0.865479,2.388000,0.419617,0.930786,23.364258,24.389648,-4.467773
518315912,-0.450684,-0.184814,0.868896,2.082825,0.450134,0.572205,23.364258,24.389648,-4.467773
521742787,-0.448486,-0.188232,0.865479,2.052307,0.648499,0.656128,23.364258,24.389648,-4.467773
524243301,-0.449707,-0.186768,0.877441,1.892090,0.686646,0.778198,23.364258,24.389648,-4.467773
526741355,-0.448975,-0.182373,0.869873,1.953125,0.770569,0.572205,22.705078,24.023438,-4.541016
529296434,-0.455811,-0.182861,0.860840,1.754761,0.701904,0.556946,22.705078,24.023438,-4.541016
532293770,-0.454590,-0.180176,0.870850,1.831055,0.732422,0.686646,22.705078,24.023438,-4.541016
534801259,-0.456055,-0.178223,0.864014,1.327515,0.808716,0.534058,22.705078,24.023438,-4.541016
537292338,-0.458252,-0.177490,0.870605,1.617432,0.701904,0.343323,22.705078,24.023438,-4.541016
539796135,-0.456055,-0.180664,0.866455,1.396179,1.052856,0.450134,22.705078,24.023438,-4.541016
542299111,-0.455566,-0.178955,0.869385,1.312256,0.762939,0.205994,22.705078,24.023438,-4.541016
544793062,-0.457031,-0.179932,0.857666,1.228333,1.045227,0.389099,22.705078,24.023438,-4.541016
547338295,-0.454590,-0.177734,0.856689,0.976563,0.991821,0.282288,23.144531,25.341797,-3.662109
550339733,-0.456787,-0.179688,0.864014,1.152039,0.907898,0.267029,23.144531,25.341797,-3.662109
552841889,-0.459229,-0.181641,0.864990,0.816345,0.648499,0.488281,23.144531,25.341797,-3.662109
555340763,-0.452881,-0.184570,0.864502,0.793457,0.762939,0.167847,23.144531,25.341797,-3.662109
557893380,-0.455566,-0.185059,0.867432,0.595093,0.740051,-0.015259,23.144531,25.341797,-3.662109
560843126,-0.453613,-0.182373,0.861084,0.495911,0.526428,0.198364,23.144531,25.341797,-3.662109
563424052,-0.450928,-0.190674,0.862793,0.434875,0.549316,0.076294,23.144531,25.341797,-3.662109
566390618,-0.452148,-0.189453,0.860107,-0.045776,0.526428,0.328064,23.144531,25.341797,-3.662109
569390415,-0.451904,-0.192627,0.861572,0.221252,0.190735,0.007629,22.924805,24.829102,-4.174805
571890110,-0.453613,-0.195313,0.863037,0.000000,0.411987,0.427246,22.924805,24.829102,-4.174805
574389394,-0.449219,-0.195313,0.871338,0.137329,0.465393,0.030518,22.924805,24.829102,-4.174805
576893191,-0.446289,-0.197754,0.871582,0.122070,0.129700,0.335693,22.851563,25.048828,-4.248047
579394526,-0.451172,-0.196777,0.868408,0.198364,0.427246,0.267029,22.851563,25.048828,-4.248047
581892169,-0.446777,-0.199219,0.867676,0.267029,0.572205,0.389099,22.851563,25.048828,-4.248047
584391453,-0.446777,-0.205078,0.874512,0.221252,0.717163,0.045776,22.851563,25.048828,-4.248047
586941609,-0.449707,-0.202881,0.873779,0.076294,0.762939,0.450134,23.217773,25.122070,-4.174805
589441304,-0.450439,-0.205811,0.870850,0.350952,0.617981,0.450134,23.217773,25.122070,-4.174805
591943049,-0.446533,-0.199707,0.874756,0.617981,0.770569,0.183105,23.217773,25.122070,-4.174805
594469410,-0.448975,-0.205322,0.875000,0.473022,0.740051,0.381470,23.217773,25.122070,-4.174805
597442131,-0.452637,-0.204590,0.875000,0.511169,1.373291,0.320435,23.144531,24.462891,-4.394531
599980799,-0.456787,-0.208740,0.876953,0.854492,1.029968,0.129700,23.144531,24.462891,-4.394531
603018751,-0.450195,-0.206299,0.875732,0.823975,1.129150,0.381470,23.144531,24.462891,-4.394531
606075984,-0.454102,-0.207275,0.867676,1.068115,0.946045,0.411987,23.144531,24.462891,-4.394531
609576295,-0.458008,-0.204590,0.873047,1.220703,1.403809,0.473022,22.265625,24.609375,-4.541016
612518656,-0.453369,-0.205322,0.866455,1.480103,1.129150,0.366211,22.265625,24.609375,-4.541016
615496299,-0.454102,-0.208496,0.860596,1.281738,1.373291,0.381470,22.265625,24.609375,-4.541016
618005430,-0.458984,-0.207275,0.869141,1.548767,1.014709,0.343323,23.071289,25.415039,-4.174805
621042560,-0.459717,-0.208984,0.859375,1.792908,1.396179,0.473022,23.071289,25.415039,-4.174805
623546357,-0.460938,-0.206299,0.860107,1.495361,1.091003,0.297546,23.071289,25.415039,-4.174805
626068616,-0.456055,-0.206055,0.858643,1.716614,1.144409,0.427246,23.217773,25.415039,-4.174805
629091387,-0.456055,-0.208496,0.857666,2.006531,1.045227,0.404358,23.217773,24.389648,-4.174805
632047698,-0.458740,-0.208496,0.861816,1.983643,0.915527,0.617981,23.217773,24.389648,-4.174805
634550674,-0.457275,-0.206299,0.858643,1.815796,0.709534,0.617981,23.217773,24.389648,-4.174805
637544728,-0.452393,-0.208252,0.859131,1.724243,0.885010,0.923157,23.217773,25.268555,-4.760742
640090781,-0.457275,-0.208252,0.870117,2.128601,0.999451,0.793457,23.217773,25.268555,-4.760742
642589655,-0.455322,-0.205078,0.864014,1.968384,0.831604,1.190186,23.217773,25.268555,-4.760742
645122580,-0.456787,-0.207520,0.856689,1.655579,0.679016,0.968933,23.217773,25.268555,-4.760742
648093659,-0.456299,-0.205566,0.860840,1.945496,0.541687,1.190186,23.071289,25.122070,-3.881836
650593354,-0.451172,-0.202881,0.866455,1.770020,0.350952,1.098633,23.071289,25.122070,-3.881836
653093048,-0.448486,-0.201660,0.865723,1.937866,0.610352,1.205444,23.071289,25.122070,-3.881836
655593153,-0.448242,-0.200928,0.869873,2.037048,0.877380,1.129150,23.071289,25.122070,-3.881836
658137975,-0.451904,-0.203857,0.872559,2.212524,0.885010,1.258850,22.485352,24.975586,-4.174805
661095106,-0.446777,-0.200928,0.869385,2.616882,0.877380,1.213074,22.485352,24.975586,-4.174805
663643621,-0.452637,-0.198975,0.866455,2.418518,0.877380,1.235962,22.485352,24.975586,-4.174805
666140444,-0.451660,-0.196289,0.867920,2.182007,1.007080,1.037598,22.485352,24.975586,-4.174805
668718497,-0.449707,-0.197754,0.867188,2.510071,1.258850,1.495361,22.485352,24.975586,-4.174805
671644448,-0.450439,-0.193848,0.864746,2.677917,1.365662,1.045227,22.485352,24.975586,-4.174805
674143322,-0.450684,-0.195801,0.866455,2.822876,1.129150,1.007080,22.485352,24.975586,-4.174805
676645068,-0.450439,-0.195313,0.865479,2.578735,1.434326,0.984192,22.119141,24.755859,-4.248047
679192762,-0.451660,-0.191406,0.868164,2.731323,1.152039,0.999451,22.119141,24.755859,-4.248047
681647738,-0.454834,-0.192871,0.870117,2.700806,1.548767,1.045227,22.119141,24.755859,-4.248047
684192561,-0.455566,-0.192139,0.858887,2.555847,1.327515,0.938416,22.119141,24.755859,-4.248047
687246102,-0.456543,-0.190186,0.871582,2.601624,1.632690,0.984192,22.119141,24.755859,-4.248047
690200361,-0.457031,-0.194092,0.864258,2.548218,1.342773,1.068115,22.119141,24.755859,-4.248047
692695952,-0.456055,-0.195313,0.863037,2.944946,1.502991,0.770569,22.119141,24.755859,-4.248047
695192775,-0.457520,-0.189941,0.854248,2.655029,1.510620,0.778198,22.119141,24.755859,-4.248047
697699854,-0.453857,-0.187256,0.864014,2.822876,1.396179,0.732422,23.071289,24.829102,-3.735352
700237702,-0.458496,-0.187012,0.862061,2.723694,1.365662,0.900269,23.071289,24.829102,-3.735352
702758730,-0.455566,-0.183838,0.862793,2.601624,1.312256,1.037598,23.071289,24.829102,-3.735352
705315040,-0.453857,-0.189209,0.863037,2.754211,1.312256,1.045227,23.071289,24.829102,-3.735352
708238940,-0.456299,-0.187256,0.864258,1.976013,1.472473,1.029968,23.071289,24.829102,-3.735352
710738224,-0.455322,-0.183838,0.856445,2.456665,1.167297,0.762939,23.071289,24.829102,-3.735352
713239149,-0.454346,-0.186523,0.861572,2.189636,1.243591,0.869751,23.071289,24.829102,-3.735352
715787664,-0.453125,-0.187744,0.864990,2.540588,1.129150,0.656128,23.071289,24.829102,-3.735352
718327153,-0.454590,-0.183350,0.857910,1.884460,1.358032,0.976563,23.217773,24.975586,-4.174805
721302745,-0.452637,-0.182373,0.864014,2.105713,1.266479,0.785828,23.217773,24.975586,-4.174805
724339466,-0.450195,-0.185791,0.859375,2.288818,1.556396,1.037598,23.217773,24.975586,-4.174805
727382750,-0.453369,-0.190186,0.859131,1.693726,1.182556,0.907898,23.217773,24.975586,-4.174805
730303368,-0.453369,-0.187500,0.863281,2.052307,1.281738,0.572205,23.217773,24.975586,-4.174805
732802652,-0.450684,-0.190430,0.858154,1.792908,1.220703,0.869751,23.217773,24.975586,-4.174805
735349526,-0.451172,-0.191650,0.870361,1.686096,1.327515,0.648499,23.217773,24.975586,-4.174805
738370246,-0.451904,-0.188232,0.865723,1.770020,1.274109,0.518799,23.364258,25.415039,-4.614258
741333531,-0.453125,-0.188477,0.863037,1.838684,1.609802,0.747681,23.364258,25.415039,-4.614258
743839789,-0.458008,-0.188721,0.864014,1.861572,1.502991,0.534058,23.364258,25.415039,-4.614258
746338253,-0.455322,-0.190918,0.861084,1.884460,1.113892,0.648499,23.364258,25.415039,-4.614258
748913024,-0.455811,-0.186279,0.868164,1.815796,1.251221,0.686646,23.364258,25.415039,-4.614258
751918565,-0.456787,-0.186768,0.858887,1.754761,1.556396,0.381470,23.364258,25.415039,-4.614258
754883491,-0.456543,-0.187012,0.864746,1.670837,1.396179,0.473022,23.364258,25.415039,-4.614258
757410262,-0.461182,-0.183838,0.858398,1.670837,1.480103,0.343323,23.071289,24.829102,-4.760742
760382572,-0.460449,-0.185059,0.859863,1.602173,1.121521,0.389099,23.071289,24.829102,-4.760742
762890061,-0.457764,-0.186768,0.859375,1.747131,1.602173,0.213623,23.071289,24.829102,-4.760742
765386884,-0.460938,-0.187988,0.859863,1.495361,1.205444,0.213623,23.071289,24.829102,-4.760742
767889860,-0.461426,-0.182861,0.860107,1.602173,1.441956,0.137329,23.071289,24.829102,-4.760742
770937658,-0.463379,-0.184814,0.861572,1.174927,1.167297,0.442505,23.071289,24.829102,-4.760742
773439814,-0.462402,-0.184570,0.862061,1.312256,0.846863,0.213623,23.071289,24.829102,-4.760742
775937457,-0.465332,-0.182617,0.859375,1.335144,1.014709,0.106812,23.291016,24.902344,-4.101563
778442895,-0.466553,-0.185059,0.855957,1.266479,1.167297,0.267029,23.291016,24.902344,-4.101563
780966794,-0.460938,-0.183350,0.853271,1.289368,1.029968,0.236511,23.291016,24.902344,-4.101563
783992438,-0.463867,-0.185303,0.860840,1.327515,0.823975,0.007629,23.291016,24.902344,-4.101563
786998389,-0.465576,-0.181641,0.856934,0.762939,0.823975,0.274658,23.291016,24.902344,-4.101563
790010084,-0.461670,-0.184082,0.859619,0.686646,0.640869,0.213623,23.291016,24.902344,-4.101563
792979522,-0.464111,-0.186768,0.854980,0.831604,0.556946,0.274658,23.291016,24.902344,-4.101563
795483729,-0.460449,-0.190430,0.849609,0.610352,0.495911,0.038147,22.998047,24.755859,-4.833984
797980141,-0.461182,-0.190674,0.859375,0.961304,0.427246,0.053406,22.998047,24.755859,-4.833984
800479426,-0.465332,-0.190430,0.854492,0.930786,0.473022,-0.099182,22.998047,24.755859,-4.833984
802986915,-0.465088,-0.193604,0.857422,0.640869,0.160217,0.205994,22.998047,24.755859,-4.833984
805987943,-0.464355,-0.191650,0.855469,0.434875,0.167847,0.099182,22.998047,24.755859,-4.833984
808545483,-0.463379,-0.195557,0.860352,0.511169,0.205994,0.083923,22.998047,24.755859,-4.833984
811041075,-0.459473,-0.194336,0.854736,0.549316,-0.022888,0.099182,22.998047,24.755859,-4.833984
813534205,-0.466797,-0.199219,0.856201,0.411987,-0.030518,0.144958,22.998047,24.755859,-4.833984
816542618,-0.461182,-0.203369,0.864014,0.663757,0.022888,0.198364,22.558594,25.048828,-4.687500
819096877,-0.461914,-0.201904,0.861084,0.617981,0.175476,0.411987,22.558594,25.048828,-4.687500
822043751,-0.460205,-0.201904,0.867188,0.549316,0.030518,0.221252,22.558594,25.048828,-4.687500
824626317,-0.461182,-0.205322,0.860840,0.778198,-0.106812,0.267029,22.558594,25.048828,-4.687500
827599448,-0.461914,-0.200439,0.869141,0.442505,-0.114441,0.526428,22.558594,25.048828,-4.687500
830670220,-0.458984,-0.202637,0.861816,0.862122,-0.167847,0.389099,22.558594,25.048828,-4.687500
833594530,-0.462402,-0.205322,0.867432,0.747681,-0.175476,0.381470,22.558594,25.048828,-4.687500
836628789,-0.464111,-0.202881,0.866455,0.984192,-0.129700,0.419617,22.998047,24.902344,-4.101563
839597406,-0.463867,-0.205811,0.867432,0.984192,-0.221252,0.572205,22.998047,24.902344,-4.101563
842093819,-0.455078,-0.204346,0.858887,1.403809,-0.190735,0.381470,22.998047,24.902344,-4.101563
844599257,-0.458496,-0.199463,0.865723,1.480103,0.205994,0.244141,22.998047,24.902344,-4.101563
847094848,-0.460938,-0.201904,0.861328,1.159668,-0.076294,0.106812,22.998047,24.902344,-4.101563
849641312,-0.457275,-0.201904,0.861572,1.518250,-0.198364,0.198364,22.998047,24.902344,-4.101563
852141417,-0.458496,-0.200928,0.856201,1.205444,-0.328064,0.137329,22.998047,24.902344,-4.101563
855143676,-0.459229,-0.206787,0.859375,1.380920,0.053406,0.038147,22.998047,24.902344,-4.101563
857642549,-0.462891,-0.199951,0.863281,1.579285,-0.503540,0.366211,23.071289,24.536133,-4.467773
860145936,-0.457764,-0.202148,0.860107,1.327515,-0.015259,0.267029,23.071289,24.536133,-4.467773
862696092,-0.460205,-0.198975,0.861816,1.480103,-0.183105,0.282288,23.071289,24.536133,-4.467773
865656094,-0.460205,-0.194824,0.861572,1.640320,-0.289917,0.267029,22.851563,24.536133,-4.467773
868653020,-0.460205,-0.194824,0.857422,1.472473,-0.091553,0.465393,22.851563,25.048828,-4.248047
871196202,-0.457031,-0.197021,0.855957,1.457214,0.106812,0.312805,22.851563,25.048828,-4.248047
873692614,-0.459229,-0.198486,0.860840,1.480103,-0.137329,0.434875,22.851563,25.048828,-4.248047
876246052,-0.457031,-0.196777,0.863525,1.419067,-0.244141,0.457764,22.631836,25.122070,-3.881836
879196618,-0.460449,-0.193848,0.852539,1.365662,-0.297546,0.312805,22.631836,25.122070,-3.881836
881697133,-0.457031,-0.195313,0.859131,1.480103,-0.411987,0.305176,22.631836,25.122070,-3.881836
884275187,-0.456543,-0.195557,0.859375,1.464844,-0.350952,0.534058,22.631836,25.122070,-3.881836
887202368,-0.449951,-0.193115,0.864502,1.495361,-0.251770,0.419617,22.851563,24.462891,-4.833984
889743499,-0.452637,-0.196777,0.862549,1.388550,-0.335693,0.602722,22.851563,24.462891,-4.833984
892306783,-0.450928,-0.198486,0.856689,1.449585,-0.335693,0.518799,22.851563,24.462891,-4.833984
895304529,-0.453613,-0.196533,0.863281,1.403809,-0.190735,0.320435,22.265625,24.462891,-4.833984
898246890,-0.453857,-0.195801,0.869141,1.480103,-0.228882,0.411987,22.265625,25.195313,-4.541016
900784739,-0.453857,-0.200439,0.864502,1.274109,-0.267029,0.396729,22.265625,25.195313,-4.541016
903814074,-0.450684,-0.201172,0.866455,1.586914,-0.061035,0.495911,22.265625,25.195313,-4.541016
906761769,-0.453125,-0.199707,0.864990,1.403809,0.061035,0.297546,23.437500,25.048828,-4.687500
909332438,-0.453125,-0.199219,0.860352,1.724243,-0.053406,0.411987,23.437500,25.048828,-4.687500
911890799,-0.458008,-0.196289,0.868652,1.373291,0.091553,0.495911,23.437500,25.048828,-4.687500
914814699,-0.455322,-0.197021,0.868408,1.594543,0.000000,0.366211,23.437500,25.048828,-4.687500
917890394,-0.449951,-0.201904,0.866455,1.281738,-0.068665,0.396729,23.144531,24.902344,-4.248047
920895114,-0.448486,-0.199707,0.863770,1.571655,-0.091553,0.526428,23.144531,24.902344,-4.248047
923860040,-0.453857,-0.199951,0.862549,1.602173,-0.007629,0.442505,23.144531,24.902344,-4.248047
926811427,-0.452637,-0.197754,0.864502,1.373291,-0.076294,0.473022,23.144531,24.609375,-4.394531
929313583,-0.453613,-0.198486,0.861572,1.625061,-0.183105,0.411987,23.144531,24.609375,-4.394531
931814097,-0.447998,-0.197021,0.859375,1.434326,-0.030518,0.503540,23.144531,24.609375,-4.394531
934359330,-0.454102,-0.196533,0.864014,1.686096,-0.144958,0.648499,23.144531,24.609375,-4.394531
936891845,-0.453857,-0.195068,0.860596,1.319885,-0.129700,0.511169,23.071289,24.389648,-4.028320
939869078,-0.450928,-0.195068,0.860352,1.434326,-0.076294,0.740051,23.071289,24.389648,-4.028320
942365491,-0.456787,-0.191650,0.862549,1.518250,-0.244141,0.419617,23.071289,24.389648,-4.028320
944907852,-0.454834,-0.192139,0.854980,1.327515,-0.137329,0.488281,23.803711,24.975586,-4.614258
947410828,-0.452637,-0.188477,0.864746,1.426697,-0.091553,0.442505,23.803711,24.975586,-4.614258
949862933,-0.457764,-0.192871,0.859131,1.152039,0.091553,0.434875,23.803711,24.975586,-4.614258
952417601,-0.453613,-0.185547,0.855469,1.274109,-0.076294,0.465393,23.803711,24.975586,-4.614258
954912373,-0.454834,-0.190186,0.855957,1.548767,-0.106812,0.282288,23.803711,24.975586,-4.614258
957407965,-0.454102,-0.188477,0.856445,0.953674,0.068665,0.312805,23.803711,24.975586,-4.614258
959908479,-0.450439,-0.191650,0.867188,1.075745,-0.122070,0.343323,23.803711,24.975586,-4.614258
962411866,-0.453369,-0.194824,0.861572,1.068115,-0.106812,0.312805,23.803711,24.975586,-4.614258
964943971,-0.453613,-0.193604,0.865234,0.938416,-0.175476,0.419617,22.778320,25.122070,-4.321289
968461512,-0.447266,-0.191406,0.864990,1.113892,-0.030518,0.358582,22.778320,25.122070,-4.321289
971483463,-0.450928,-0.195313,0.855957,0.816345,-0.122070,0.175476,22.778320,25.122070,-4.321289
973961824,-0.447021,-0.197998,0.865234,1.144409,-0.061035,0.427246,22.778320,25.122070,-4.321289
976461108,-0.446289,-0.199463,0.868164,1.419067,0.244141,0.228882,22.778320,25.122070,-4.321289
978985828,-0.448242,-0.202637,0.865723,1.106262,0.106812,0.045776,22.778320,25.122070,-4.321289
981461318,-0.445557,-0.207275,0.868408,1.350403,-0.106812,0.305176,22.778320,25.122070,-4.321289
984013525,-0.448975,-0.203369,0.870361,1.243591,0.251770,0.205994,22.778320,25.122070,-4.321289
987012502,-0.447998,-0.209961,0.869629,1.937866,0.213623,0.244141,22.705078,25.048828,-3.955078
989508914,-0.452881,-0.209961,0.871338,1.441956,0.251770,0.289917,22.705078,25.048828,-3.955078
992093942,-0.450439,-0.209961,0.870361,1.586914,0.434875,0.663757,22.705078,25.048828,-3.955078
995093329,-0.451660,-0.207764,0.867432,1.777649,0.358582,0.572205,22.705078,25.048828,-3.955078
998064408,-0.448242,-0.209229,0.871338,2.151489,0.564575,0.411987,22.705078,25.048828,-3.955078
1000595692,-0.449219,-0.209961,0.871826,1.800537,0.541687,0.823975,22.705078,25.048828,-3.955078
1003563900,-0.450439,-0.211914,0.873047,2.296448,0.312805,0.831604,22.705078,25.048828,-3.955078
1006059492,-0.453125,-0.217041,0.865723,2.281189,0.732422,0.747681,22.705078,25.488281,-4.687500
1008562058,-0.448242,-0.209473,0.868896,2.151489,0.686646,0.770569,22.705078,25.488281,-4.687500
1011062983,-0.451660,-0.210693,0.870361,2.059937,0.511169,0.930786,22.705078,25.488281,-4.687500
1013604934,-0.451904,-0.210693,0.867188,2.403259,0.549316,0.930786,22.705078,25.488281,-4.687500
1016624834,-0.454346,-0.208984,0.871094,2.449036,0.556946,1.045227,22.705078,25.488281,-4.687500
1019564323,-0.452148,-0.204834,0.869385,2.388000,0.801086,1.167297,22.705078,25.488281,-4.687500
1022108325,-0.454590,-0.200928,0.855469,2.258301,0.511169,0.976563,22.705078,25.488281,-4.687500
1024563712,-0.455078,-0.204346,0.863525,2.571106,0.801086,0.915527,22.998047,24.755859,-3.808594
1027109355,-0.458252,-0.196045,0.866455,2.494812,0.862122,0.976563,22.998047,24.755859,-3.808594
1029609870,-0.457275,-0.192627,0.861328,2.334595,0.900269,1.304626,22.998047,24.755859,-3.808594
1032112026,-0.456543,-0.199707,0.854248,2.700806,0.816345,1.144409,22.998047,24.755859,-3.808594
1034612951,-0.457520,-0.190430,0.857666,2.456665,0.900269,0.961304,22.998047,24.755859,-3.808594
1037161466,-0.453125,-0.197510,0.860352,2.784729,0.495911,1.014709,22.998047,24.755859,-3.808594
1040137058,-0.455566,-0.194824,0.856689,2.616882,0.389099,0.907898,22.998047,24.755859,-3.808594
1042636752,-0.455322,-0.193359,0.857422,2.525330,0.488281,0.984192,22.998047,24.755859,-3.808594
1045686601,-0.457275,-0.190674,0.856445,2.708435,0.137329,0.953674,23.217773,24.682617,-4.467773
1048139526,-0.459717,-0.192871,0.855469,2.731323,0.427246,0.869751,23.217773,24.682617,-4.467773
1050655631,-0.460449,-0.192139,0.855469,2.281189,0.061035,1.052856,23.217773,24.682617,-4.467773
1053162710,-0.462402,-0.192627,0.858643,2.586365,0.137329,0.976563,23.217773,24.682617,-4.467773
1055652148,-0.464355,-0.189209,0.860352,2.166748,0.259399,1.022339,23.217773,24.682617,-4.467773
1058239227,-0.463867,-0.191895,0.854736,2.052307,0.022888,0.862122,23.217773,24.682617,-4.467773
1061239024,-0.459229,-0.190186,0.861816,2.014160,-0.015259,1.052856,23.217773,24.682617,-4.467773
1064283129,-0.465088,-0.192139,0.856934,2.067566,-0.030518,0.877380,23.217773,24.682617,-4.467773
1067285388,-0.463135,-0.194092,0.859863,2.174377,-0.267029,0.991821,23.217773,24.829102,-3.588867
1070278621,-0.458496,-0.192383,0.861572,2.243042,-0.137329,0.831604,23.217773,24.829102,-3.588867
1073246419,-0.457764,-0.190918,0.858643,2.151489,-0.045776,0.717163,23.217773,24.829102,-3.588867
1076215857,-0.457275,-0.191895,0.861328,2.044678,-0.480652,0.793457,23.217773,24.829102,-3.588867
1079211141,-0.453369,-0.192627,0.864258,2.052307,-0.083923,1.029968,23.217773,24.829102,-3.588867
1081710015,-0.458740,-0.193848,0.865967,2.105713,-0.442505,1.037598,23.217773,24.829102,-3.588867
1084264684,-0.455078,-0.194092,0.868408,1.953125,-0.724792,1.121521,23.291016,25.488281,-3.955078
1086845199,-0.458740,-0.198242,0.866699,2.029419,-0.366211,1.075745,23.291016,25.488281,-3.955078
1089842945,-0.455078,-0.195801,0.866211,2.075195,-0.617981,0.732422,23.291016,25.488281,-3.955078
1092851358,-0.457031,-0.191406,0.871582,2.075195,-0.152588,0.976563,23.291016,25.488281,-3.955078
1095812591,-0.457520,-0.190186,0.869873,2.243042,-0.488281,0.900269,23.291016,25.488281,-3.955078
1098837824,-0.453613,-0.194824,0.876465,2.067566,-0.236511,1.014709,23.291016,25.488281,-3.955078
1101828596,-0.460205,-0.193359,0.863037,2.059937,-0.373840,0.961304,23.291016,25.488281,-3.955078
1104341829,-0.457275,-0.198730,0.870117,1.625061,-0.091553,1.037598,23.803711,24.975586,-5.053711
1107335882,-0.463135,-0.194580,0.870850,1.991272,-0.137329,0.999451,23.803711,24.975586,-5.053711
1109811782,-0.457275,-0.196045,0.863037,1.724243,-0.267029,1.060486,23.803711,24.975586,-5.053711
1112390246,-0.459961,-0.194092,0.860107,1.640320,-0.312805,0.793457,23.803711,24.975586,-5.053711
1115368299,-0.461670,-0.194092,0.860107,1.457214,-0.427246,0.709534,23.803711,24.975586,-5.053711
1118403789,-0.459229,-0.190918,0.855469,1.708984,-0.480652,0.831604,23.803711,24.975586,-5.053711
1121365432,-0.456055,-0.193604,0.858154,1.838684,-0.549316,0.770569,23.803711,24.975586,-5.053711
1124362358,-0.460693,-0.197266,0.855957,1.678467,-0.617981,0.724792,23.071289,25.415039,-5.053711
1126862463,-0.456787,-0.200928,0.847168,2.166748,-1.014709,0.694275,23.071289,25.415039,-4.614258
1129362977,-0.453857,-0.197021,0.850342,2.151489,-0.770569,0.595093,23.071289,25.415039,-4.614258
1131863082,-0.450928,-0.197266,0.854736,2.014160,-1.075745,0.503540,23.071289,25.415039,-4.614258
1134401341,-0.449463,-0.197510,0.853760,1.922607,-1.121521,0.740051,23.071289,25.415039,-4.614258
1137417548,-0.452393,-0.201172,0.849854,1.907349,-1.258850,0.396729,23.071289,25.415039,-4.614258
1140410371,-0.444092,-0.202393,0.856201,1.983643,-1.152039,0.762939,23.071289,25.415039,-4.614258
1142945348,-0.445313,-0.203613,0.856689,1.747131,-1.029968,0.953674,23.071289,25.415039,-4.614258
1145918068,-0.443359,-0.208252,0.845703,1.770020,-1.296997,1.205444,22.705078,24.609375,-4.833984
1148432942,-0.441406,-0.208252,0.854980,1.976013,-1.182556,1.060486,22.705078,24.609375,-4.833984
1150932636,-0.444580,-0.208984,0.860352,2.227783,-1.029968,1.075745,22.705078,24.609375,-4.833984
1153541049,-0.441406,-0.215332,0.854004,2.647400,-0.968933,1.190186,22.705078,24.609375,-4.833984
1156457154,-0.446045,-0.210693,0.862793,2.548218,-1.052856,1.197815,22.924805,25.122070,-4.614258
1158984335,-0.442627,-0.207520,0.873291,2.792358,-0.625610,1.342773,22.924805,25.122070,-4.614258
1162010799,-0.442139,-0.209717,0.865967,2.906799,-0.663757,1.342773,22.924805,25.122070,-4.614258
1165011827,-0.446533,-0.205811,0.870605,3.227234,-0.587463,1.502991,22.998047,25.048828,-4.833984
1168014907,-0.447998,-0.207520,0.869141,3.105164,-0.465393,1.571655,22.998047,25.048828,-4.833984
1171060653,-0.448975,-0.205078,0.876221,3.448486,-0.343323,1.831055,22.998047,25.048828,-4.833984
1173980450,-0.450439,-0.201660,0.874268,3.440857,-0.267029,1.930237,22.998047,25.048828,-4.833984
1176559734,-0.453369,-0.205322,0.873291,3.372192,-0.221252,1.846313,23.364258,23.950195,-4.467773
1179481172,-0.448975,-0.198486,0.870361,3.570557,-0.373840,1.907349,23.364258,23.950195,-4.467773
1182026816,-0.449707,-0.198486,0.873291,3.616333,0.099182,1.663208,23.364258,23.950195,-4.467773
1184614715,-0.449951,-0.194336,0.873047,3.288269,-0.221252,1.724243,23.437500,24.755859,-4.394531
1187571025,-0.452148,-0.196045,0.871826,3.692627,0.076294,1.762390,23.437500,24.755859,-4.394531
1190534720,-0.455078,-0.194580,0.867432,3.356934,0.053406,1.335144,23.437500,24.755859,-4.394531
1193115235,-0.450195,-0.188965,0.870117,3.829956,0.213623,1.617432,23.437500,24.755859,-4.394531
1196117494,-0.451660,-0.194580,0.873535,3.730774,-0.038147,1.243591,22.045898,24.975586,-3.588867
1199085701,-0.450928,-0.192871,0.867432,3.509521,0.122070,1.594543,22.045898,24.975586,-3.588867
1201586626,-0.451904,-0.193848,0.866455,3.501892,-0.137329,1.281738,22.045898,24.975586,-3.588867
1204039552,-0.446045,-0.188965,0.867188,3.700256,-0.083923,1.693726,23.217773,24.536133,-4.028320
1206591759,-0.445313,-0.190918,0.865479,3.555298,-0.022888,1.518250,23.217773,24.536133,-4.028320
1209089812,-0.445313,-0.190674,0.865723,3.311157,-0.137329,1.457214,23.217773,24.536133,-4.028320
1211587865,-0.441895,-0.191406,0.866211,3.639221,-0.022888,1.930237,23.217773,24.536133,-4.028320
1214086739,-0.447754,-0.187256,0.873047,3.150940,-0.198364,1.571655,22.851563,25.048828,-3.955078
1216666844,-0.443848,-0.190674,0.871826,3.059387,-0.213623,1.983643,22.851563,25.048828,-3.955078
1219671564,-0.445068,-0.188232,0.869629,3.051758,-0.236511,1.876831,22.851563,25.048828,-3.955078
1222715669,-0.446045,-0.185791,0.871582,3.044128,-0.022888,1.831055,22.851563,25.048828,-3.955078
1225717928,-0.441895,-0.185059,0.878906,2.906799,-0.228882,1.869202,22.998047,25.341797,-3.808594
1229172700,-0.447510,-0.181396,0.875488,2.685547,0.137329,1.632690,22.998047,25.341797,-3.808594
1232222959,-0.448242,-0.182129,0.873291,2.548218,0.213623,2.052307,22.998047,25.341797,-3.808594
1235210039,-0.444824,-0.178223,0.884521,2.540588,0.267029,1.823425,23.291016,24.609375,-4.541016
1238205323,-0.445068,-0.182373,0.875977,2.174377,0.526428,1.739502,23.291016,24.609375,-4.541016
1241187890,-0.443115,-0.180420,0.875000,2.326965,0.633240,1.518250,23.291016,24.609375,-4.541016
1243722046,-0.441650,-0.178467,0.882324,2.143860,0.495911,1.464844,23.291016,24.609375,-4.541016
1246694766,-0.445313,-0.177246,0.872803,2.326965,0.717163,1.243591,23.291016,24.609375,-4.541016
1249189127,-0.443115,-0.178711,0.884277,2.426147,0.930786,1.167297,23.291016,24.609375,-4.541016
1251708103,-0.446289,-0.181641,0.875732,2.067566,0.991821,1.075745,23.291016,24.609375,-4.541016
1254191798,-0.445068,-0.181885,0.867676,2.105713,0.915527,1.251221,23.217773,25.415039,-4.614258
1256725133,-0.448242,-0.182861,0.869385,2.174377,1.029968,0.480652,23.217773,25.415039,-4.614258
1259771700,-0.448730,-0.184326,0.872314,2.243042,0.732422,0.717163,23.217773,25.415039,-4.614258
1262740318,-0.449951,-0.184326,0.859863,2.204895,1.121521,0.663757,23.217773,25.415039,-4.614258
1265263807,-0.450928,-0.184326,0.857910,2.197266,1.052856,0.572205,23.217773,25.415039,-4.614258
1268274681,-0.450928,-0.190918,0.860352,2.159119,1.174927,0.526428,23.217773,25.415039,-4.614258
1271238786,-0.455566,-0.192139,0.854248,1.762390,1.052856,0.488281,23.217773,25.415039,-4.614258
1273738891,-0.455322,-0.191895,0.861084,2.258301,1.182556,0.579834,23.437500,24.902344,-4.248047
1276238175,-0.458008,-0.193359,0.867432,1.869202,0.885010,0.541687,23.437500,24.902344,-4.248047
1278748126,-0.455078,-0.192871,0.858643,1.907349,0.999451,0.465393,23.437500,24.902344,-4.248047
1281317974,-0.458740,-0.196777,0.852295,1.838684,0.991821,0.877380,23.437500,24.902344,-4.248047
1284324335,-0.459229,-0.197754,0.853760,1.678467,0.869751,0.785828,23.437500,24.902344,-4.248047
1287372953,-0.456787,-0.196777,0.856201,1.770020,0.457764,0.656128,23.437500,24.902344,-4.248047
1290338699,-0.464111,-0.197510,0.856201,1.632690,0.625610,0.961304,23.437500,24.902344,-4.248047
1292837983,-0.456055,-0.193848,0.861084,1.892090,0.259399,0.839233,23.437500,24.902344,-4.248047
1295337267,-0.458496,-0.200684,0.863525,1.785278,0.419617,0.930786,23.217773,24.829102,-5.053711
1297837782,-0.458740,-0.199707,0.852539,1.892090,-0.076294,0.991821,23.217773,24.829102,-5.053711
1300337887,-0.458252,-0.198242,0.861816,1.579285,0.221252,0.816345,23.217773,24.829102,-5.053711
1303336454,-0.457520,-0.198242,0.861816,1.777649,-0.167847,0.907898,23.217773,24.829102,-5.053711
1305887020,-0.456543,-0.199463,0.858154,2.014160,0.000000,1.083374,23.217773,24.829102,-5.053711
1308840048,-0.458740,-0.199707,0.862061,1.869202,0.000000,0.633240,23.217773,24.829102,-5.053711
1311337281,-0.454102,-0.201660,0.856934,2.044678,-0.167847,1.060486,23.217773,24.829102,-5.053711
1313869795,-0.455322,-0.201904,0.864014,1.846313,-0.175476,0.991821,23.217773,24.829102,-4.907227
1316931542,-0.452148,-0.197754,0.861328,1.907349,-0.160217,1.007080,23.217773,24.829102,-4.907227
1319890313,-0.448730,-0.200195,0.870361,2.090454,-0.061035,0.938416,23.217773,24.829102,-4.907227
1322390828,-0.453125,-0.195068,0.869385,2.105713,0.114441,0.755310,23.217773,24.829102,-4.907227
1324884779,-0.447754,-0.200439,0.872803,1.945496,0.038147,0.907898,23.217773,24.829102,-4.907227
1327388576,-0.453369,-0.195313,0.872803,1.953125,-0.091553,0.915527,23.217773,24.829102,-4.907227
1329891142,-0.454102,-0.194580,0.870605,2.120972,0.312805,0.999451,23.217773,24.829102,-4.907227
1332399041,-0.453857,-0.200195,0.869141,2.052307,-0.106812,0.885010,23.217773,24.829102,-4.907227
1335436582,-0.452881,-0.197266,0.862305,1.945496,0.015259,0.862122,22.778320,24.096680,-4.614258
1337938328,-0.454102,-0.201660,0.864990,1.983643,0.007629,0.831604,22.778320,24.096680,-4.614258
1340437612,-0.453125,-0.198242,0.863525,2.029419,0.274658,0.778198,22.778320,24.096680,-4.614258
1342968486,-0.455566,-0.194336,0.871338,2.342224,0.205994,1.007080,22.778320,24.096680,-4.614258
1346517207,-0.453369,-0.201660,0.871826,2.304077,0.122070,0.740051,22.778320,24.096680,-4.614258
1349447261,-0.458496,-0.199463,0.871094,2.258301,0.328064,0.793457,22.778320,24.096680,-4.614258
1352486853,-0.456543,-0.193604,0.862305,2.220154,0.198364,0.831604,22.778320,24.096680,-4.614258
1354986547,-0.451904,-0.199219,0.863525,2.342224,0.526428,0.831604,22.558594,24.316406,-4.541016
1357517011,-0.448730,-0.198730,0.873535,2.433777,0.137329,0.923157,22.558594,24.316406,-4.541016
1360489321,-0.454102,-0.197998,0.866943,2.441406,0.053406,0.778198,22.558594,24.316406,-4.541016
1363065733,-0.454590,-0.199707,0.866943,2.441406,-0.106812,0.923157,22.558594,24.316406,-4.541016
1366038454,-0.458496,-0.204834,0.866211,2.471924,0.129700,0.724792,22.558594,24.316406,-4.541016
1368995584,-0.453857,-0.200684,0.868408,2.532959,-0.053406,0.953674,22.558594,24.316406,-4.541016
1372069228,-0.455566,-0.203125,0.864746,2.746582,0.175476,1.022339,22.558594,24.316406,-4.541016
1375038666,-0.448975,-0.200439,0.869629,2.616882,0.076294,1.129150,22.485352,25.415039,-3.881836
1377535899,-0.451416,-0.203369,0.866455,2.449036,0.015259,1.083374,22.485352,25.415039,-3.881836
1380038875,-0.451904,-0.198730,0.869629,2.464294,-0.106812,1.197815,22.485352,25.415039,-3.881836
1382538980,-0.448975,-0.202148,0.868652,2.548218,-0.129700,1.106262,22.485352,25.415039,-3.881836
1385046469,-0.448975,-0.199219,0.869141,2.952576,-0.068665,1.243591,22.485352,25.415039,-3.881836
1387540420,-0.451660,-0.197998,0.868652,2.807617,0.114441,1.365662,22.485352,25.415039,-3.881836
1390042576,-0.451904,-0.196289,0.869385,2.593994,0.038147,1.411438,22.485352,25.415039,-3.881836
1392588219,-0.452393,-0.196045,0.863281,3.074646,0.099182,1.296997,23.291016,25.415039,-3.881836
1395087093,-0.449707,-0.195313,0.874023,2.883911,0.114441,1.205444,23.291016,24.316406,-4.541016
1397587198,-0.450439,-0.193115,0.868408,2.891541,0.160217,1.411438,23.291016,24.316406,-4.541016
1400138584,-0.446533,-0.191162,0.872314,2.838135,0.434875,1.358032,23.291016,24.316406,-4.541016
1403098587,-0.448486,-0.191406,0.869141,2.960205,0.335693,1.113892,23.291016,24.316406,-4.541016
1406093461,-0.450439,-0.189697,0.869385,2.685547,0.320435,1.388550,23.291016,24.316406,-4.541016
1408593976,-0.447510,-0.187256,0.862549,3.051758,0.289917,1.296997,23.291016,24.316406,-4.541016
1411090798,-0.446289,-0.187256,0.866943,2.601624,0.404358,1.411438,23.291016,24.316406,-4.541016
1413636031,-0.448486,-0.185059,0.866455,2.838135,0.335693,1.083374,22.851563,24.755859,-4.248047
1416137777,-0.450195,-0.187988,0.875732,2.441406,0.564575,1.426697,22.851563,24.755859,-4.248047
1419140446,-0.449707,-0.187012,0.862793,2.922058,0.488281,1.281738,22.851563,24.755859,-4.248047
1421639730,-0.446045,-0.185059,0.867432,2.838135,0.175476,1.396179,22.851563,24.755859,-4.248047
1424140245,-0.449707,-0.186523,0.870605,2.777100,0.381470,1.403809,22.851563,24.755859,-4.248047
1426639939,-0.449951,-0.184814,0.870117,2.502441,0.167847,1.022339,22.851563,24.755859,-4.248047
1429143736,-0.449707,-0.185791,0.864990,2.616882,0.450134,1.251221,22.851563,24.755859,-4.248047
1431692251,-0.449463,-0.185059,0.865479,2.563477,0.228882,1.205444,22.851563,24.755859,-4.248047
1434190304,-0.453125,-0.185547,0.856201,2.311707,0.221252,1.403809,23.217773,24.682617,-3.735352
1436729794,-0.452148,-0.184570,0.868408,2.456665,0.320435,1.426697,23.217773,24.682617,-3.735352
1439688565,-0.454590,-0.185547,0.859375,2.449036,0.015259,1.220703,23.217773,24.682617,-3.735352
1442191132,-0.452637,-0.184326,0.855957,2.105713,0.251770,1.152039,23.217773,24.682617,-3.735352
1444691646,-0.454102,-0.183838,0.864990,2.220154,0.114441,1.098633,23.217773,24.682617,-3.735352
1447237700,-0.451904,-0.183838,0.872314,2.342224,0.411987,0.976563,23.217773,24.682617,-3.735352
1449736984,-0.457520,-0.187500,0.865967,2.220154,0.267029,1.136780,23.217773,24.682617,-3.735352
1452238319,-0.458008,-0.182617,0.870361,2.380371,0.129700,1.106262,22.998047,24.682617,-3.735352
1454740065,-0.455322,-0.185547,0.868164,2.182007,-0.167847,0.831604,22.998047,25.048828,-4.394531
1457239349,-0.454346,-0.184326,0.857178,2.189636,0.061035,0.885010,22.998047,25.048828,-4.394531
1459740684,-0.453613,-0.182129,0.871582,1.884460,-0.366211,0.869751,22.998047,25.048828,-4.394531
1462239969,-0.451904,-0.185791,0.866699,2.075195,-0.160217,0.907898,22.998047,25.048828,-4.394531
1464745817,-0.448730,-0.180908,0.865479,1.632690,0.137329,0.991821,22.338867,24.682617,-4.028320
1467290229,-0.444580,-0.179688,0.867676,1.907349,0.076294,0.999451,22.338867,24.682617,-4.028320
1469826847,-0.446045,-0.185303,0.857910,2.105713,0.251770,0.946045,22.338867,24.682617,-4.028320
1472870952,-0.446289,-0.176758,0.866699,1.678467,-0.106812,1.106262,23.291016,24.316406,-4.248047
1475789928,-0.446533,-0.183838,0.865479,1.464844,0.022888,0.686646,23.291016,24.316406,-4.248047
1478337212,-0.443359,-0.184814,0.865967,1.556396,-0.061035,0.816345,23.291016,24.316406,-4.248047
1480793009,-0.442139,-0.187500,0.865234,1.571655,0.129700,0.617981,23.291016,24.316406,-4.248047
1483796089,-0.439941,-0.188477,0.867188,1.327515,0.083923,0.724792,23.217773,24.389648,-4.760742
1486860707,-0.448486,-0.190430,0.866699,1.708984,0.221252,0.900269,23.217773,24.389648,-4.760742
1489876914,-0.444580,-0.190918,0.868164,1.495361,0.076294,0.633240,23.217773,24.389648,-4.760742
1492916507,-0.448730,-0.194824,0.868652,1.739502,0.015259,0.518799,23.217773,24.389648,-4.614258
1495917945,-0.445801,-0.195557,0.870361,1.525879,0.457764,0.686646,23.217773,24.389648,-4.614258
1498841024,-0.447998,-0.193604,0.873779,1.510620,0.244141,0.457764,23.217773,24.389648,-4.614258
1501891693,-0.451416,-0.198730,0.864014,2.014160,0.213623,0.595093,23.217773,24.389648,-4.614258
1504894773,-0.450928,-0.199463,0.876953,1.770020,0.526428,0.785828,22.192383,24.975586,-4.174805
1507401852,-0.448242,-0.194580,0.875244,2.182007,0.328064,0.587463,22.192383,24.975586,-4.174805
1510392213,-0.450195,-0.200439,0.877197,2.441406,0.160217,0.801086,22.192383,24.975586,-4.174805
1512886574,-0.451172,-0.199463,0.868896,2.250671,0.579834,0.579834,23.071289,25.268555,-4.614258
1515385858,-0.449951,-0.197998,0.869141,2.449036,0.518799,0.587463,23.071289,25.268555,-4.614258
1517889655,-0.447021,-0.202637,0.874756,2.563477,0.595093,0.648499,23.071289,25.268555,-4.614258
1520390170,-0.454346,-0.202637,0.869141,2.662659,0.381470,0.869751,23.071289,25.268555,-4.614258
1522936223,-0.449951,-0.196533,0.875488,2.693176,0.289917,0.701904,23.510742,25.122070,-3.881836
1525895405,-0.454834,-0.196777,0.868896,2.845764,0.595093,0.770569,23.510742,25.122070,-3.881836
1528445561,-0.450439,-0.198242,0.873291,3.051758,0.656128,0.564575,23.510742,25.122070,-3.881836
1530939922,-0.447510,-0.193848,0.866699,2.555847,0.343323,1.083374,23.510742,25.122070,-3.881836
1533494181,-0.448975,-0.193848,0.863037,2.868652,0.572205,0.900269,23.144531,24.755859,-4.248047
1536020542,-0.447754,-0.194336,0.857910,2.563477,0.427246,0.953674,23.144531,24.755859,-4.248047
1538944031,-0.449219,-0.191406,0.858643,2.632141,0.503540,1.037598,23.144531,24.755859,-4.248047
1542071008,-0.447266,-0.188965,0.865723,2.540588,0.320435,1.014709,23.144531,24.755859,-4.248047
1545068344,-0.447266,-0.189697,0.868164,2.548218,0.617981,1.304626,23.291016,24.609375,-4.541016
1548098090,-0.445313,-0.192627,0.861816,2.525330,0.373840,1.327515,23.291016,24.609375,-4.541016
1551070400,-0.445068,-0.193604,0.862549,2.517700,0.610352,1.289368,23.291016,24.609375,-4.541016
1554025480,-0.450195,-0.191650,0.862061,2.418518,0.694275,1.274109,23.291016,24.609375,-4.541016
1557065892,-0.449951,-0.187988,0.862305,2.342224,0.625610,1.235962,23.291016,24.609375,-4.541016
1560068972,-0.449707,-0.187500,0.859863,2.639771,0.480652,1.129150,23.291016,24.609375,-4.541016
1563042513,-0.451660,-0.189941,0.865723,2.502441,0.267029,1.274109,23.217773,24.536133,-4.321289
1567083131,-0.451904,-0.190430,0.869873,2.555847,0.511169,1.319885,23.217773,24.536133,-4.321289
1570042313,-0.451660,-0.191895,0.866943,2.288818,0.564575,0.968933,23.217773,24.536133,-4.321289
1572543239,-0.453613,-0.191406,0.860840,2.609253,0.442505,1.274109,23.217773,24.536133,-4.321289
1575089292,-0.448242,-0.191162,0.861328,2.479553,0.564575,1.167297,23.217773,24.536133,-4.321289
1577594320,-0.451416,-0.192871,0.861572,2.349854,0.358582,1.091003,23.217773,24.536133,-4.321289
1580127655,-0.451660,-0.191406,0.859863,2.532959,0.617981,0.938416,23.217773,24.536133,-4.321289
1583171350,-0.452637,-0.193359,0.865967,2.456665,0.213623,0.984192,22.338867,24.829102,-3.881836
1586092788,-0.451416,-0.193115,0.874756,2.677917,0.366211,1.228333,22.338867,24.829102,-3.881836
1588594123,-0.455811,-0.189697,0.868164,2.677917,0.068665,1.060486,22.338867,24.829102,-3.881836
1591086023,-0.451904,-0.190674,0.873535,2.922058,0.305176,0.915527,22.338867,24.829102,-3.881836
1593589410,-0.448730,-0.194092,0.870361,2.586365,0.335693,1.052856,22.338867,24.829102,-3.881836
1596135873,-0.448486,-0.193359,0.862793,2.868652,0.015259,0.953674,22.338867,24.829102,-3.881836
1598638439,-0.447998,-0.194336,0.867188,2.700806,0.297546,0.892639,22.338867,24.829102,-3.881836
1601138954,-0.449463,-0.197754,0.864746,2.647400,0.083923,0.854492,22.338867,24.829102,-3.881836
1603633315,-0.446045,-0.191406,0.868408,2.647400,0.358582,1.129150,22.265625,25.048828,-3.662109
1606137522,-0.447754,-0.196777,0.875000,2.548218,0.358582,0.976563,22.265625,25.048828,-3.662109
1608639678,-0.444580,-0.191650,0.868896,2.525330,0.183105,1.098633,22.265625,25.048828,-3.662109
1611218963,-0.444092,-0.194336,0.870850,2.571106,0.282288,1.091003,22.265625,25.048828,-3.662109
1614183888,-0.442871,-0.189209,0.875977,2.769470,0.343323,1.296997,22.265625,25.048828,-3.662109
1616682352,-0.445801,-0.198486,0.874268,2.738953,0.358582,1.068115,22.265625,25.048828,-3.662109
1619689123,-0.440186,-0.189697,0.866455,2.471924,0.869751,1.152039,22.265625,25.048828,-3.662109
1622685228,-0.445313,-0.187012,0.867920,2.601624,0.175476,1.213074,23.657227,25.122070,-4.907227
1625184923,-0.446289,-0.188477,0.877441,2.670288,0.633240,1.304626,23.657227,25.122070,-4.907227
1627684207,-0.447021,-0.189209,0.873535,2.349854,0.396729,1.289368,23.657227,25.122070,-4.907227
1630186363,-0.446045,-0.186523,0.872070,2.716064,0.709534,1.464844,23.657227,25.122070,-4.907227
1632689339,-0.445801,-0.184326,0.872559,2.311707,0.778198,1.197815,23.657227,25.122070,-4.907227
1635234982,-0.451172,-0.186279,0.867676,2.288818,0.900269,1.075745,23.657227,25.122070,-4.907227
1637767907,-0.446777,-0.183594,0.869141,2.563477,0.839233,1.220703,23.657227,25.122070,-4.907227
1640236833,-0.447754,-0.186035,0.869629,2.265930,0.694275,0.968933,23.657227,25.122070,-4.907227
1642811604,-0.452637,-0.185059,0.868896,2.449036,0.717163,1.136780,23.291016,24.462891,-4.833984
1645736734,-0.453369,-0.184814,0.869629,2.189636,0.953674,1.083374,23.291016,24.462891,-4.833984
1648241352,-0.449951,-0.187256,0.869873,2.136230,0.907898,0.648499,23.291016,24.462891,-4.833984
1650737354,-0.450684,-0.188477,0.868896,2.166748,0.907898,0.717163,23.291016,24.462891,-4.833984
1653286279,-0.454834,-0.181885,0.866943,2.098083,0.762939,0.816345,23.291016,24.462891,-4.833984
1655783922,-0.451172,-0.183105,0.867676,2.273560,0.915527,0.869751,23.291016,24.462891,-4.833984
1658784540,-0.452881,-0.183105,0.868164,2.105713,0.610352,0.709534,23.291016,24.462891,-4.833984
1661334286,-0.454834,-0.181396,0.866211,2.067566,0.854492,0.640869,23.291016,24.462891,-4.833984
1663861057,-0.458740,-0.184814,0.866699,2.136230,0.961304,0.511169,23.437500,24.609375,-3.369141
1666864957,-0.454834,-0.187500,0.867676,1.983643,0.892639,0.816345,23.437500,24.609375,-3.369141
1669867216,-0.458252,-0.185303,0.871826,2.159119,0.534058,0.511169,23.437500,24.609375,-3.369141
1672866193,-0.457764,-0.187012,0.868896,1.808167,0.892639,0.740051,23.437500,24.609375,-3.369141
1675857785,-0.455811,-0.187744,0.860840,1.785278,0.289917,0.411987,23.437500,24.609375,-3.369141
1678843633,-0.451416,-0.189209,0.869141,1.815796,0.778198,0.762939,23.437500,24.609375,-3.369141
1681413482,-0.451416,-0.189941,0.868408,1.823425,0.335693,0.648499,22.998047,24.169922,-4.101563
1684367741,-0.458008,-0.191895,0.864014,1.800537,0.282288,0.656128,22.998047,24.169922,-4.101563
1687464769,-0.450684,-0.195801,0.866455,1.708984,0.549316,0.831604,22.998047,24.169922,-4.101563
1690403438,-0.452393,-0.191895,0.870117,1.808167,0.556946,0.526428,22.998047,24.169922,-4.101563
1693384774,-0.446777,-0.195557,0.866943,1.869202,0.450134,0.411987,22.998047,24.169922,-4.101563
1696391135,-0.451660,-0.196533,0.865479,2.006531,0.640869,0.648499,22.998047,24.169922,-4.101563
1698887958,-0.452148,-0.196777,0.867676,1.983643,0.389099,0.823975,22.998047,24.169922,-4.101563
1701386831,-0.449219,-0.196045,0.869385,2.044678,0.411987,0.701904,22.924805,24.975586,-4.028320
1703885705,-0.450928,-0.198486,0.866455,1.998901,0.595093,0.671387,22.924805,24.975586,-4.028320
1706391964,-0.451172,-0.198242,0.862305,1.998901,0.808716,0.518799,22.924805,24.975586,-4.028320
1708935145,-0.449219,-0.195557,0.864990,1.945496,0.602722,0.633240,22.924805,24.975586,-4.028320
1711485301,-0.448242,-0.200928,0.868896,1.991272,0.679016,0.770569,22.924805,24.975586,-4.028320
1714467047,-0.446289,-0.200684,0.870850,2.433777,0.411987,0.846863,22.924805,24.975586,-4.028320
1717013921,-0.450928,-0.197510,0.867188,2.243042,0.541687,0.946045,22.924805,24.975586,-4.028320
1719939052,-0.448486,-0.200439,0.870361,1.945496,0.839233,0.862122,22.924805,24.975586,-4.028320
1722436695,-0.448242,-0.198242,0.864258,2.479553,0.762939,0.801086,23.144531,25.488281,-4.541016
1724968389,-0.451172,-0.201172,0.861328,2.342224,0.823975,0.946045,23.144531,25.488281,-4.541016
1728517110,-0.446777,-0.195801,0.868652,2.441406,0.862122,1.068115,23.144531,25.488281,-4.541016
1731521010,-0.452148,-0.194580,0.873291,2.342224,0.823975,1.052856,23.144531,25.488281,-4.541016
1734486756,-0.450195,-0.194824,0.870850,2.334595,0.808716,1.083374,23.144531,25.488281,-4.541016
1736985630,-0.454102,-0.193359,0.874268,2.487183,0.511169,0.892639,23.144531,25.488281,-4.541016
1739495991,-0.448242,-0.191895,0.871338,2.593994,0.717163,1.213074,23.144531,25.488281,-4.541016
1742007172,-0.449219,-0.192871,0.866699,2.349854,0.572205,1.098633,23.071289,24.829102,-3.735352
1744519995,-0.446533,-0.191650,0.870117,2.540588,0.801086,1.091003,23.071289,24.829102,-3.735352
1747016407,-0.449219,-0.191406,0.867676,2.647400,0.831604,0.885010,23.071289,24.829102,-3.735352
1749516512,-0.447266,-0.192139,0.872314,2.586365,0.846863,1.098633,23.071289,24.829102,-3.735352
1752014976,-0.448242,-0.189697,0.874268,2.510071,0.717163,0.839233,22.851563,25.048828,-4.394531
1754563080,-0.452637,-0.190430,0.873047,2.922058,0.991821,1.235962,22.851563,25.048828,-4.394531
1757063185,-0.449219,-0.186523,0.866455,2.639771,0.556946,0.907898,22.851563,25.048828,-4.394531
1759605136,-0.451904,-0.187500,0.870361,2.716064,1.091003,1.136780,22.851563,25.048828,-4.394531
1762650882,-0.448486,-0.185791,0.868408,2.601624,0.846863,1.144409,22.851563,24.462891,-3.955078
1765693346,-0.452393,-0.184814,0.866455,2.525330,0.923157,0.991821,22.851563,24.462891,-3.955078
1768601246,-0.454590,-0.186035,0.870605,2.273560,0.907898,0.961304,22.851563,24.462891,-3.955078
1771614171,-0.455566,-0.186523,0.866455,2.441406,0.839233,0.991821,23.217773,24.975586,-4.174805
1774146686,-0.455566,-0.182373,0.866943,2.281189,0.854492,1.014709,23.217773,24.975586,-4.174805
1777156740,-0.450928,-0.181641,0.859375,2.281189,0.770569,1.083374,23.217773,24.975586,-4.174805
1780193050,-0.456299,-0.182617,0.865234,2.265930,1.014709,1.228333,23.217773,24.975586,-4.174805
1783616642,-0.459473,-0.177490,0.865967,2.014160,1.052856,1.029968,23.364258,24.975586,-4.174805
1786126593,-0.459473,-0.174805,0.856934,2.090454,0.648499,1.068115,23.364258,24.975586,-4.174805
1788620544,-0.456543,-0.177002,0.858887,1.686096,0.846863,0.869751,23.364258,24.975586,-4.174805
1791165777,-0.458008,-0.176514,0.861084,1.930237,0.701904,0.930786,22.631836,24.829102,-4.174805
1793616651,-0.456055,-0.182129,0.857666,1.693726,0.450134,0.907898,22.631836,24.829102,-4.174805
1796163935,-0.456787,-0.180176,0.852295,1.792908,0.305176,0.595093,22.631836,24.829102,-4.174805
1798668963,-0.460938,-0.178955,0.860596,1.892090,0.198364,0.915527,22.631836,24.829102,-4.174805
1801166606,-0.458252,-0.180664,0.858887,1.396179,0.526428,0.671387,22.851563,24.902344,-3.662109
1803665890,-0.460205,-0.184082,0.862549,1.808167,0.503540,0.640869,22.851563,24.902344,-3.662109
1806246405,-0.458008,-0.183105,0.858643,1.663208,0.427246,0.381470,22.851563,24.902344,-3.662109
1809245792,-0.458252,-0.185547,0.860107,1.647949,0.122070,0.656128,22.851563,24.902344,-3.662109
1812215640,-0.458496,-0.187256,0.861816,1.815796,-0.007629,0.343323,23.217773,24.682617,-4.174805
1814711642,-0.456543,-0.189697,0.866211,1.762390,0.160217,0.511169,23.217773,24.682617,-4.174805
1817243337,-0.455078,-0.191895,0.868164,1.930237,-0.030518,0.556946,23.217773,24.682617,-4.174805
1820219339,-0.452881,-0.194336,0.867920,1.724243,-0.175476,0.617981,23.217773,24.682617,-4.174805
1822742418,-0.450439,-0.196533,0.864014,1.983643,0.106812,0.312805,23.217773,24.682617,-4.174805
1825716369,-0.454834,-0.197266,0.871094,1.678467,-0.236511,0.701904,23.217773,24.682617,-4.174805
1828220166,-0.450684,-0.197754,0.871582,1.701355,-0.312805,0.556946,23.217773,24.682617,-4.174805
1830727245,-0.445068,-0.198486,0.868408,1.968384,0.030518,0.839233,22.558594,25.341797,-4.101563
1833763966,-0.446289,-0.194336,0.878906,1.777649,-0.297546,0.610352,22.558594,25.341797,-4.101563
1836348993,-0.447266,-0.198242,0.876465,1.991272,-0.022888,0.793457,22.558594,25.341797,-4.101563
1839295868,-0.444824,-0.197998,0.872314,1.876831,0.007629,0.701904,22.558594,25.341797,-4.101563
1842391665,-0.445068,-0.197998,0.873047,2.082825,-0.129700,0.999451,22.558594,25.341797,-4.101563
1845395975,-0.445068,-0.195068,0.864746,2.349854,-0.419617,1.075745,22.558594,25.341797,-4.101563
1848370337,-0.443848,-0.196289,0.872314,2.174377,-0.312805,0.999451,22.558594,25.341797,-4.101563
1851316390,-0.446533,-0.194580,0.876953,2.204895,0.030518,0.801086,23.217773,24.389648,-4.321289
1854316188,-0.447510,-0.194824,0.866699,2.311707,0.396729,0.892639,23.217773,24.389648,-4.321289
1856864292,-0.444092,-0.190186,0.869629,2.059937,0.144958,1.037598,23.217773,24.389648,-4.321289
1859815679,-0.443359,-0.194336,0.881592,2.265930,0.419617,0.999451,23.217773,24.389648,-4.321289
1862314143,-0.446289,-0.191406,0.878174,2.319336,0.190735,0.839233,23.217773,24.389648,-4.321289
1864895889,-0.442871,-0.190918,0.872803,2.380371,0.411987,0.915527,23.217773,24.389648,-4.321289
1867870660,-0.441895,-0.188477,0.875244,2.357483,0.190735,0.846863,23.217773,24.389648,-4.321289
1870902868,-0.442383,-0.191162,0.871338,2.525330,0.602722,0.907898,23.217773,24.389648,-4.321289
1873885434,-0.444824,-0.189453,0.882324,2.731323,0.625610,0.968933,23.144531,24.316406,-3.662109
1876365847,-0.447998,-0.187744,0.879150,2.777100,0.534058,0.839233,23.144531,24.316406,-3.662109
1878917233,-0.442627,-0.188232,0.874023,2.655029,0.610352,1.167297,23.144531,24.316406,-3.662109
1881363594,-0.441895,-0.187744,0.875977,2.235413,0.900269,0.953674,23.144531,24.316406,-3.662109
1883867391,-0.446533,-0.187744,0.870850,2.456665,0.717163,0.862122,23.144531,24.316406,-3.662109
1886871291,-0.446289,-0.184326,0.870605,2.250671,0.816345,0.816345,23.144531,24.316406,-3.662109
1889415293,-0.446533,-0.181885,0.871582,2.403259,0.968933,0.976563,23.144531,24.316406,-3.662109
1891917039,-0.447266,-0.182129,0.867188,2.388000,0.823975,0.923157,23.217773,24.682617,-4.467773
1894415092,-0.450439,-0.183838,0.867920,1.968384,0.892639,0.900269,23.217773,24.682617,-4.467773
1896914376,-0.450928,-0.179443,0.866699,2.014160,0.617981,1.014709,23.217773,24.682617,-4.467773
1899495712,-0.449707,-0.185791,0.869385,2.334595,1.029968,0.923157,23.217773,24.682617,-4.467773
1902440535,-0.452393,-0.177979,0.864990,1.892090,0.801086,0.732422,23.217773,24.682617,-4.467773
1904941460,-0.451904,-0.180908,0.868896,2.029419,1.129150,0.816345,23.217773,24.682617,-4.467773
1907443616,-0.453613,-0.177246,0.863281,1.869202,0.732422,0.564575,23.217773,24.682617,-4.467773
1909937977,-0.454346,-0.177979,0.865723,1.884460,0.755310,0.648499,23.217773,24.682617,-4.467773
1912440953,-0.451172,-0.180664,0.860352,1.571655,0.633240,0.686646,22.558594,25.048828,-3.662109
1914987007,-0.456055,-0.178223,0.864990,1.861572,0.572205,0.625610,22.558594,25.048828,-3.662109
1917519111,-0.452148,-0.176270,0.873047,1.670837,0.701904,0.656128,22.558594,25.048828,-3.662109
1920488139,-0.451904,-0.178467,0.863525,1.564026,0.770569,0.541687,22.558594,25.048828,-3.662109
1922986193,-0.455078,-0.181152,0.866455,1.472473,0.587463,0.511169,22.558594,25.048828,-3.662109
1926036862,-0.459961,-0.180420,0.862305,1.480103,0.701904,0.465393,22.558594,25.048828,-3.662109
1928991941,-0.454590,-0.180176,0.866699,1.632690,0.312805,0.610352,22.558594,25.048828,-3.662109
1931537995,-0.459229,-0.184326,0.866211,1.411438,0.701904,0.717163,23.364258,25.268555,-4.467773
1934036868,-0.460938,-0.182373,0.857910,1.289368,0.411987,0.404358,23.364258,25.268555,-4.467773
1936571435,-0.455811,-0.182373,0.868408,1.319885,0.450134,0.556946,23.364258,25.268555,-4.467773
1940044258,-0.455811,-0.181885,0.864502,1.289368,0.312805,0.427246,23.364258,25.268555,-4.467773
1942591952,-0.454590,-0.182373,0.861816,1.220703,0.350952,0.488281,23.364258,25.268555,-4.467773
1945546211,-0.453369,-0.186035,0.862305,1.129150,0.213623,0.305176,23.364258,25.268555,-4.467773
1948047547,-0.453613,-0.186279,0.867188,1.686096,0.328064,0.503540,23.364258,25.268555,-4.467773
1950592779,-0.453369,-0.188477,0.864014,1.068115,0.038147,0.358582,22.485352,24.536133,-4.321289
1953092064,-0.453613,-0.188965,0.863525,1.022339,0.114441,0.236511,22.485352,24.536133,-4.321289
1955600373,-0.451904,-0.189697,0.864014,1.434326,-0.152588,0.450134,22.485352,24.536133,-4.321289
1958602222,-0.456055,-0.191406,0.866943,1.510620,0.068665,0.267029,22.485352,24.536133,-4.321289
1961622122,-0.451904,-0.198730,0.858398,1.335144,0.068665,0.442505,22.485352,24.536133,-4.321289
1964645304,-0.451172,-0.191650,0.865967,1.464844,0.137329,0.518799,22.485352,24.536133,-4.321289
1967596691,-0.454102,-0.195068,0.863281,1.411438,-0.099182,0.198364,22.485352,24.536133,-4.321289
1970675668,-0.448975,-0.199951,0.861816,1.457214,-0.053406,0.427246,23.144531,25.048828,-3.955078
1973647978,-0.447510,-0.197998,0.865723,1.686096,-0.343323,0.404358,23.144531,25.048828,-3.955078
1976218236,-0.453613,-0.196045,0.869141,1.617432,-0.221252,0.549316,23.144531,25.048828,-3.955078
1979172495,-0.449219,-0.199707,0.870361,1.449585,-0.129700,0.556946,23.144531,25.048828,-3.955078
1982223575,-0.447754,-0.197021,0.872559,1.823425,-0.091553,0.709534,23.144531,25.048828,-3.955078
1985149526,-0.443604,-0.196777,0.864014,1.907349,-0.183105,0.785828,23.144531,25.048828,-3.955078
1988196092,-0.443604,-0.201172,0.869873,1.922607,-0.015259,0.999451,23.144531,25.048828,-3.955078
1990713428,-0.439697,-0.194824,0.875977,1.861572,-0.228882,0.938416,22.705078,25.048828,-3.662109
1993692302,-0.442627,-0.196533,0.878906,1.808167,0.053406,0.907898,22.705078,25.048828,-3.662109
1996193227,-0.442383,-0.195557,0.880127,2.082825,0.305176,0.793457,22.705078,25.048828,-3.662109
1998695793,-0.441895,-0.192139,0.862793,2.052307,0.198364,1.289368,22.705078,25.048828,-3.662109
2001193436,-0.440918,-0.193848,0.873291,1.892090,0.564575,1.068115,22.705078,25.048828,-3.662109
2003721028,-0.443848,-0.190430,0.877441,1.731873,0.183105,1.091003,22.705078,25.048828,-3.662109
2006196517,-0.441650,-0.191406,0.876709,1.937866,0.427246,1.121521,22.705078,25.048828,-3.662109
2008708519,-0.449219,-0.189941,0.873047,2.029419,0.503540,1.045227,22.705078,25.048828,-3.662109
2011238573,-0.445313,-0.188721,0.874512,1.686096,0.640869,0.999451,22.998047,24.902344,-4.833984
2014256011,-0.444336,-0.188721,0.865234,1.602173,0.686646,0.778198,22.998047,24.902344,-4.833984
2017258270,-0.447021,-0.187500,0.875244,1.930237,0.869751,1.136780,22.998047,24.902344,-4.833984
2019766170,-0.450439,-0.189697,0.874268,1.792908,0.823975,0.793457,22.998047,24.902344,-4.833984
2022262582,-0.443848,-0.189209,0.864990,1.815796,0.488281,0.862122,23.144531,25.048828,-3.955078
2024811917,-0.448730,-0.188965,0.863281,1.594543,0.900269,0.770569,23.144531,25.048828,-3.955078
2027342791,-0.452637,-0.190674,0.865967,1.892090,1.014709,0.778198,23.144531,25.048828,-3.955078
2030840640,-0.448730,-0.191162,0.860107,2.067566,0.579834,0.556946,22.631836,24.829102,-4.907227
2034269156,-0.448486,-0.186279,0.866455,1.869202,0.778198,0.617981,22.631836,24.829102,-4.907227
2037312851,-0.451904,-0.190918,0.861084,1.739502,1.052856,0.747681,22.631836,24.829102,-4.907227
2040312648,-0.452637,-0.189209,0.858398,2.014160,0.350952,0.701904,22.558594,25.341797,-3.662109
2042811932,-0.453613,-0.187256,0.860352,1.785278,0.778198,0.808716,22.558594,25.341797,-3.662109
2045311626,-0.455322,-0.193115,0.863770,1.831055,0.526428,0.724792,22.558594,25.341797,-3.662109
2047816244,-0.452148,-0.188477,0.859619,1.785278,0.343323,0.938416,22.558594,25.341797,-3.662109
2050814810,-0.454102,-0.188721,0.867676,1.876831,0.648499,0.709534,22.998047,24.609375,-4.101563
2053359633,-0.453613,-0.190674,0.861816,1.708984,0.404358,0.770569,22.998047,24.609375,-4.101563
2055861789,-0.452148,-0.189209,0.857178,1.762390,0.396729,0.839233,22.998047,24.609375,-4.101563
2058359842,-0.452393,-0.188721,0.872803,1.922607,0.419617,0.877380,22.998047,24.609375,-4.101563
2061391640,-0.449951,-0.192871,0.867432,2.075195,0.228882,0.877380,22.998047,25.048828,-4.980469
2063938924,-0.453369,-0.189941,0.873291,1.914978,0.160217,0.877380,22.998047,25.048828,-4.980469
2066942413,-0.449707,-0.192383,0.865723,2.029419,0.457764,0.946045,22.998047,25.048828,-4.980469
2069863852,-0.453613,-0.187988,0.870605,2.029419,0.198364,1.037598,22.998047,24.755859,-4.394531
2072369700,-0.453857,-0.187744,0.871338,2.166748,0.083923,0.595093,22.998047,24.755859,-4.394531
2075410933,-0.452148,-0.190186,0.867920,2.098083,0.343323,0.793457,22.998047,24.755859,-4.394531
2077938935,-0.453125,-0.185303,0.869873,2.182007,0.320435,0.801086,22.998047,24.755859,-4.394531
2080913707,-0.446045,-0.180664,0.871094,1.869202,0.038147,0.862122,22.851563,25.048828,-3.955078
2083490530,-0.449463,-0.190430,0.862061,1.983643,0.450134,0.762939,22.851563,25.048828,-3.955078
2086414019,-0.447266,-0.189453,0.865967,1.930237,0.175476,0.854492,22.851563,25.048828,-3.955078
2088915355,-0.448730,-0.187012,0.864990,1.747131,0.236511,0.854492,22.851563,25.048828,-3.955078
2091497510,-0.447266,-0.183838,0.871582,1.693726,0.381470,0.785828,22.851563,25.048828,-3.955078
2094543667,-0.452393,-0.185059,0.870361,1.968384,0.160217,0.724792,22.851563,25.048828,-3.955078
2097540592,-0.449463,-0.183594,0.869141,1.510620,0.595093,0.846863,22.851563,25.048828,-3.955078
2100967467,-0.449219,-0.186523,0.876221,1.678467,0.236511,0.541687,22.705078,24.755859,-4.541016
2103545520,-0.451660,-0.190918,0.866699,1.556396,0.381470,0.511169,22.705078,24.755859,-4.541016
2106466138,-0.447754,-0.190186,0.872803,1.823425,-0.030518,0.511169,22.705078,24.755859,-4.541016
2108968704,-0.447266,-0.186279,0.863037,1.708984,0.343323,0.633240,22.705078,24.755859,-4.541016
2111467168,-0.448242,-0.191650,0.867432,1.571655,0.175476,0.534058,22.705078,24.755859,-4.541016
2113979580,-0.451904,-0.187744,0.870850,2.014160,0.282288,0.625610,22.705078,24.755859,-4.541016
2116485428,-0.447754,-0.192139,0.870361,1.831055,0.389099,0.373840,22.705078,24.755859,-4.541016
2119039277,-0.447998,-0.191406,0.864746,1.983643,0.282288,0.617981,22.705078,24.755859,-4.541016
2121532407,-0.447266,-0.191162,0.872559,1.861572,0.465393,0.602722,22.631836,25.268555,-4.028320
2124034563,-0.448975,-0.194336,0.867188,1.876831,0.282288,0.427246,22.631836,25.268555,-4.028320
2126612206,-0.448242,-0.193359,0.868164,2.006531,0.358582,0.572205,22.631836,25.268555,-4.028320
2130112517,-0.449707,-0.193359,0.874512,1.815796,0.389099,0.450134,22.631836,25.268555,-4.028320
2133113134,-0.450439,-0.192627,0.869385,1.922607,0.587463,0.740051,22.631836,25.268555,-4.028320
2136082573,-0.449707,-0.194092,0.864014,1.899719,0.213623,0.640869,22.631836,25.268555,-4.028320
2138600318,-0.448486,-0.190430,0.871582,2.189636,0.602722,0.617981,22.631836,25.268555,-4.028320
2141083602,-0.445313,-0.196289,0.860596,1.647949,0.350952,0.633240,22.631836,24.536133,-4.467773
2143589861,-0.447021,-0.197510,0.868408,2.449036,0.671387,0.900269,22.631836,24.536133,-4.467773
2146091196,-0.449707,-0.196045,0.864746,1.762390,0.320435,0.427246,22.631836,24.536133,-4.467773
2148586788,-0.449219,-0.192383,0.860840,2.075195,0.297546,0.610352,22.631836,24.536133,-4.467773
2151086893,-0.449219,-0.200439,0.862305,2.418518,0.411987,0.724792,22.631836,24.536133,-4.467773
2153588228,-0.452393,-0.197266,0.864014,2.220154,0.389099,0.770569,22.631836,24.536133,-4.467773
2156135512,-0.450928,-0.197021,0.865234,2.090454,0.274658,1.007080,22.631836,24.536133,-4.467773
2159136130,-0.447266,-0.195557,0.866211,2.365112,0.267029,0.915527,22.631836,24.536133,-4.467773
2161715004,-0.452637,-0.197998,0.865479,2.578735,0.167847,0.892639,23.364258,24.536133,-4.467773
2164714801,-0.450684,-0.195801,0.870850,2.449036,0.404358,0.968933,23.364258,24.536133,-4.467773
2167715419,-0.445801,-0.196045,0.861328,2.677917,0.366211,1.106262,23.364258,24.536133,-4.467773
2170717268,-0.449463,-0.195801,0.868652,2.807617,0.137329,1.060486,23.364258,24.536133,-4.467773
2173718706,-0.448975,-0.199951,0.873779,3.013611,0.457764,0.907898,23.364258,24.536133,-4.467773
2176687324,-0.445313,-0.195313,0.867920,2.365112,0.526428,1.045227,23.364258,24.536133,-4.467773
2179691634,-0.445068,-0.194824,0.874512,2.822876,0.396729,1.319885,22.998047,24.902344,-3.662109
2182188046,-0.445313,-0.192627,0.874023,2.662659,0.511169,1.586914,22.998047,24.902344,-3.662109
2184686510,-0.447266,-0.191162,0.877441,2.601624,0.167847,1.541138,22.998047,24.902344,-3.662109
2187187025,-0.443848,-0.189209,0.879395,2.632141,0.549316,1.350403,22.998047,24.902344,-3.662109
2189688771,-0.446533,-0.188477,0.868652,2.494812,0.610352,1.579285,22.998047,24.902344,-3.662109
2192235234,-0.444580,-0.188477,0.874512,2.418518,0.663757,1.426697,22.998047,24.902344,-3.662109
2194689800,-0.448486,-0.188721,0.872070,2.281189,0.534058,1.472473,22.998047,24.902344,-3.662109
2197234213,-0.441162,-0.182373,0.873535,2.502441,0.709534,1.464844,22.998047,24.902344,-3.662109
2199735138,-0.443359,-0.184570,0.875488,2.037048,0.587463,1.441956,23.437500,25.195313,-4.687500
2202236883,-0.443604,-0.181885,0.873291,2.357483,0.694275,1.396179,23.437500,25.195313,-4.687500
2204736167,-0.444336,-0.184570,0.876953,2.456665,1.083374,1.174927,23.437500,25.195313,-4.687500
2207316682,-0.440674,-0.184814,0.875488,2.593994,0.877380,1.419067,23.437500,25.195313,-4.687500
2210240582,-0.446289,-0.181885,0.880371,2.372742,0.961304,1.243591,23.437500,25.195313,-4.687500
2212794431,-0.444336,-0.182373,0.881592,1.991272,1.029968,1.403809,23.437500,25.195313,-4.687500
2215788074,-0.444336,-0.180176,0.873535,2.113342,0.953674,0.915527,23.437500,25.195313,-4.687500
2218331666,-0.448486,-0.177490,0.878418,2.212524,1.304626,1.136780,23.437500,25.195313,-4.687500
2221272796,-0.447510,-0.177734,0.870605,1.953125,1.304626,0.793457,23.437500,24.755859,-4.394531
2223776183,-0.450439,-0.173340,0.881104,2.281189,1.152039,1.022339,23.437500,24.755859,-4.394531
2226309519,-0.447998,-0.175537,0.877930,1.976013,1.045227,0.816345,23.437500,24.755859,-4.394531
2229308495,-0.450684,-0.172607,0.875977,2.235413,0.900269,1.029968,23.437500,24.755859,-4.394531
2231806959,-0.450195,-0.177246,0.867920,1.754761,1.525879,0.862122,23.437500,24.755859,-4.394531
2234312397,-0.447754,-0.180420,0.875977,2.326965,0.976563,0.831604,23.437500,24.755859,-4.394531
2236849014,-0.451660,-0.178467,0.872070,1.678467,1.106262,0.572205,23.437500,24.755859,-4.394531
2239817222,-0.453369,-0.182129,0.861816,1.945496,1.296997,0.869751,22.924805,25.122070,-3.881836
2242319788,-0.455811,-0.179688,0.865234,1.754761,1.266479,0.923157,22.924805,25.122070,-3.881836
2244862149,-0.454834,-0.183838,0.868896,1.541138,1.281738,0.816345,22.924805,25.122070,-3.881836
2247363485,-0.454346,-0.183838,0.868164,1.655579,1.205444,0.953674,22.924805,25.122070,-3.881836
2249866051,-0.460693,-0.186768,0.862061,1.480103,1.243591,0.854492,22.924805,25.122070,-3.881836
2252444514,-0.459717,-0.183838,0.871338,1.586914,0.923157,1.022339,22.924805,25.122070,-3.881836
2255494773,-0.458496,-0.184082,0.864502,1.609802,1.144409,0.602722,22.924805,25.122070,-3.881836
2258451494,-0.460449,-0.182129,0.867432,1.388550,1.159668,0.816345,22.924805,25.122070,-3.881836
2261496009,-0.460938,-0.184082,0.871094,1.525879,0.572205,0.442505,22.924805,25.122070,-3.442383
2264493755,-0.465820,-0.184570,0.865967,1.083374,0.602722,0.717163,22.924805,25.122070,-3.442383
2268009655,-0.463379,-0.182861,0.862549,1.594543,0.396729,0.404358,22.924805,25.122070,-3.442383
2271441453,-0.458252,-0.186279,0.864990,1.136780,0.526428,0.511169,22.924805,25.122070,-3.442383
2274485558,-0.464355,-0.190186,0.859863,1.213074,0.198364,0.541687,22.924805,25.122070,-3.442383
2277416843,-0.457520,-0.183838,0.854736,1.594543,0.137329,0.694275,22.924805,25.122070,-3.442383
2279918178,-0.453369,-0.191650,0.853760,0.999451,0.221252,0.366211,23.071289,24.536133,-4.028320
2282464231,-0.450195,-0.187500,0.856201,1.365662,-0.053406,0.572205,23.071289,24.536133,-4.028320
2284965567,-0.447510,-0.192383,0.860107,1.487732,-0.007629,0.526428,23.071289,24.536133,-4.028320
2287464030,-0.447266,-0.186768,0.857422,1.380920,-0.114441,0.411987,23.071289,24.536133,-4.028320
2289964955,-0.447998,-0.194824,0.859863,1.342773,-0.335693,0.312805,23.071289,24.536133,-4.028320
2292465060,-0.449463,-0.193359,0.851807,1.586914,-0.160217,0.694275,23.071289,24.536133,-4.028320
2294964344,-0.442627,-0.190674,0.855713,1.152039,-0.213623,0.373840,23.071289,24.536133,-4.028320
2297513269,-0.444580,-0.192871,0.858887,1.579285,-0.366211,0.587463,23.071289,24.536133,-4.028320
2300510195,-0.441650,-0.195313,0.859375,1.487732,-0.556946,0.648499,22.924805,24.389648,-4.028320
2303014812,-0.442139,-0.197266,0.860840,1.617432,-0.427246,0.625610,22.924805,24.389648,-4.028320
2305508353,-0.442383,-0.196289,0.857910,1.556396,-0.175476,0.785828,22.924805,24.389648,-4.028320
2308007227,-0.441895,-0.199951,0.864258,1.579285,-0.228882,0.495911,22.924805,24.389648,-4.028320
2310509382,-0.439941,-0.198486,0.872803,1.968384,-0.259399,0.617981,22.924805,24.389648,-4.028320
2313011949,-0.440918,-0.201172,0.865479,2.235413,0.160217,0.648499,22.924805,24.389648,-4.028320
2315507951,-0.439941,-0.200684,0.865479,2.227783,-0.045776,0.785828,22.924805,24.389648,-4.028320
2318054004,-0.439209,-0.198975,0.865967,2.182007,0.022888,0.785828,22.924805,24.389648,-4.028320
2320559852,-0.439941,-0.201172,0.865967,2.532959,0.335693,0.930786,23.071289,24.536133,-4.028320
2323054624,-0.442383,-0.201416,0.861816,2.632141,0.053406,1.144409,23.071289,24.536133,-4.028320
2325584267,-0.443848,-0.200684,0.868652,2.532959,0.076294,0.816345,23.071289,24.536133,-4.028320
2328607449,-0.444092,-0.202393,0.869385,2.708435,0.312805,1.266479,23.071289,24.536133,-4.028320
2331637605,-0.446777,-0.197021,0.881348,2.876282,0.251770,0.869751,23.071289,24.536133,-4.028320
2334634120,-0.452637,-0.194824,0.875000,2.914429,0.244141,1.274109,23.071289,24.536133,-4.028320
2337610123,-0.447021,-0.194336,0.883545,2.983093,0.732422,1.213074,23.071289,24.536133,-4.028320
2340646433,-0.452637,-0.192383,0.880615,3.013611,0.610352,1.182556,22.851563,25.048828,-4.101563
2343613410,-0.453125,-0.191895,0.878906,3.234863,0.564575,0.991821,22.851563,25.048828,-4.101563
2346111463,-0.452881,-0.187988,0.871338,3.250122,0.526428,0.991821,22.851563,25.048828,-4.101563
2348622234,-0.449707,-0.184814,0.870850,2.983093,0.549316,1.075745,22.851563,25.048828,-4.101563
2351111262,-0.457275,-0.185791,0.875244,2.937317,0.526428,1.014709,22.851563,25.048828,-4.101563
2353608495,-0.448975,-0.183105,0.869141,2.830505,0.579834,1.121521,22.851563,25.048828,-4.101563
2356192292,-0.450684,-0.185059,0.867920,2.723694,0.389099,1.205444,22.851563,25.048828,-4.101563
2359208499,-0.448242,-0.181152,0.866211,2.998352,0.602722,1.266479,22.338867,25.268555,-4.028320
2362236194,-0.451172,-0.180664,0.867432,2.799988,0.617981,1.052856,22.338867,25.268555,-4.028320
2365241735,-0.450195,-0.185791,0.866455,2.731323,0.427246,1.152039,22.338867,25.268555,-4.028320
2368239891,-0.447510,-0.181396,0.870605,2.388000,0.839233,1.075745,22.338867,25.268555,-4.028320
2371240509,-0.447266,-0.181396,0.867188,2.723694,0.633240,1.129150,22.851563,24.755859,-4.394531
2374237435,-0.450684,-0.180420,0.866699,2.410889,0.679016,1.205444,22.851563,24.755859,-4.394531
2377219181,-0.446777,-0.181641,0.864502,2.510071,0.808716,1.167297,22.851563,24.755859,-4.394531
2379791491,-0.448486,-0.184082,0.867432,2.540588,0.518799,1.518250,23.217773,24.389648,-4.321289
2382788826,-0.444092,-0.180664,0.866943,2.281189,0.648499,1.396179,23.217773,24.389648,-4.321289
2385789444,-0.446045,-0.182129,0.880127,1.998901,0.793457,1.403809,23.217773,24.389648,-4.321289
2388720318,-0.447998,-0.179443,0.873047,2.037048,0.595093,1.449585,23.071289,24.389648,-4.028320
2391796424,-0.446533,-0.183105,0.873047,1.876831,0.648499,1.487732,23.071289,24.389648,-4.028320
2394828631,-0.439453,-0.184326,0.871338,1.937866,1.045227,1.335144,23.071289,24.389648,-4.028320
2397797249,-0.444092,-0.181641,0.872314,1.892090,0.892639,1.647949,23.071289,24.389648,-4.028320
2400744533,-0.445557,-0.184570,0.876709,2.182007,1.220703,1.182556,22.631836,24.975586,-4.467773
2403246689,-0.441895,-0.183838,0.875977,1.907349,1.167297,1.190186,22.631836,24.975586,-4.467773
2405792743,-0.446533,-0.184326,0.881348,1.960754,1.182556,0.976563,22.631836,24.975586,-4.467773
2408792950,-0.441406,-0.186768,0.883789,2.120972,1.174927,1.167297,22.705078,24.316406,-4.394531
2411291414,-0.439941,-0.183105,0.884033,1.869202,1.541138,0.869751,22.705078,24.316406,-4.394531
2414295724,-0.443115,-0.184814,0.880859,2.334595,1.380920,0.976563,22.705078,24.316406,-4.394531
2416921367,-0.446045,-0.184814,0.877930,2.075195,1.701355,0.770569,22.705078,24.316406,-4.394531
2419871113,-0.445801,-0.187744,0.868652,2.525330,1.686096,0.869751,22.778320,24.389648,-3.735352
2422843423,-0.447510,-0.185059,0.871094,2.212524,1.380920,0.564575,22.778320,24.389648,-3.735352
2425420656,-0.448242,-0.185303,0.874268,2.151489,1.869202,0.968933,22.778320,24.389648,-3.735352
2428348659,-0.449707,-0.187256,0.869141,1.930237,1.617432,1.007080,22.924805,24.829102,-4.321289
2431422302,-0.456299,-0.186035,0.869629,1.846313,1.724243,1.007080,22.924805,24.829102,-4.321289
2434423330,-0.449219,-0.183105,0.871826,1.976013,1.892090,0.930786,22.924805,24.829102,-4.321289
2437439948,-0.450439,-0.180420,0.860596,1.747131,1.678467,0.984192,22.924805,24.829102,-4.321289
2440851643,-0.455078,-0.179688,0.862305,1.609802,1.579285,0.907898,23.144531,24.902344,-3.955078
2443392363,-0.450684,-0.182861,0.863281,1.586914,1.647949,1.014709,23.144531,24.902344,-3.955078
2445890827,-0.458496,-0.183594,0.856201,1.358032,1.609802,0.831604,23.144531,24.902344,-3.955078
2448430726,-0.458008,-0.180664,0.867920,1.281738,1.289368,1.159668,22.998047,25.195313,-4.980469
2451476062,-0.461914,-0.182617,0.856445,1.319885,1.457214,0.968933,22.998047,25.195313,-4.980469
2454420885,-0.458740,-0.181885,0.855469,1.182556,1.327515,0.831604,22.998047,25.195313,-4.980469
2457947452,-0.459473,-0.183594,0.862061,1.136780,0.984192,0.816345,22.998047,25.195313,-4.980469
2460963660,-0.464600,-0.182861,0.857178,1.152039,0.808716,0.862122,23.071289,24.536133,-4.321289
2463443662,-0.460205,-0.185791,0.861328,1.266479,0.823975,0.869751,23.071289,24.536133,-4.321289
2466439767,-0.459717,-0.185791,0.850586,1.098633,0.740051,0.968933,23.071289,24.536133,-4.321289
2468944795,-0.460693,-0.184326,0.860840,0.968933,0.747681,0.793457,22.705078,24.755859,-4.101563
2471440386,-0.454102,-0.182861,0.859863,0.938416,0.770569,0.564575,22.705078,24.755859,-4.101563
2473945824,-0.454834,-0.190430,0.856934,1.060486,0.381470,0.617981,22.705078,24.755859,-4.101563
2476444288,-0.456299,-0.188477,0.865967,1.098633,0.549316,0.671387,22.705078,24.755859,-4.101563
2478953008,-0.461426,-0.190430,0.862549,0.656128,0.289917,0.762939,23.657227,24.389648,-3.588867
2481516702,-0.456299,-0.192871,0.862305,1.251221,0.228882,0.656128,23.657227,24.389648,-3.588867
2483995474,-0.453125,-0.190674,0.875244,1.083374,0.251770,0.679016,23.657227,24.389648,-3.588867
2486493527,-0.450439,-0.189697,0.872314,1.167297,0.045776,0.801086,23.657227,24.389648,-3.588867
2488997734,-0.456055,-0.188965,0.866455,1.129150,0.495911,0.923157,22.412109,25.341797,-4.833984
2491492505,-0.450439,-0.190430,0.873779,1.182556,0.198364,0.732422,22.412109,25.341797,-4.833984
2494021738,-0.452148,-0.192871,0.871826,1.457214,0.251770,0.679016,22.412109,25.341797,-4.833984
2497075689,-0.447998,-0.191895,0.871338,1.274109,0.038147,0.717163,22.412109,25.341797,-4.833984
2500071384,-0.452393,-0.191162,0.867920,1.243591,0.312805,0.785828,22.412109,25.341797,-4.833984
2503082669,-0.448486,-0.192383,0.865967,1.441956,0.205994,0.587463,22.412109,25.341797,-4.833984
2506094774,-0.446533,-0.192627,0.871338,1.434326,0.236511,0.381470,22.412109,25.341797,-4.833984
2509046571,-0.446533,-0.191650,0.874023,1.663208,0.328064,0.877380,23.364258,24.829102,-4.174805
2512045138,-0.447998,-0.191650,0.874756,1.655579,0.404358,0.709534,23.364258,24.829102,-4.174805
2514543191,-0.443359,-0.191895,0.875244,1.548767,0.434875,0.686646,23.364258,24.829102,-4.174805
2517091706,-0.452393,-0.191895,0.877197,1.586914,0.473022,0.656128,23.364258,24.829102,-4.174805
2520091093,-0.450684,-0.191895,0.871826,1.991272,0.801086,0.755310,23.364258,24.829102,-4.174805
2522599403,-0.447998,-0.192871,0.875000,1.701355,0.663757,0.656128,23.364258,24.829102,-4.174805
2525641046,-0.442383,-0.189209,0.876221,1.861572,0.587463,0.717163,23.364258,24.829102,-4.174805
2528095202,-0.447266,-0.192871,0.870117,1.792908,0.556946,0.579834,22.924805,24.243164,-4.028320
2531093769,-0.450684,-0.188232,0.872070,1.884460,0.892639,0.724792,22.924805,24.243164,-4.028320
2533597976,-0.445801,-0.188477,0.872070,1.792908,0.816345,0.846863,22.924805,24.243164,-4.028320
2536176439,-0.446777,-0.185547,0.867432,1.716614,0.854492,0.686646,22.924805,24.243164,-4.028320
2539152852,-0.449463,-0.187500,0.870361,1.831055,0.923157,0.808716,22.924805,24.243164,-4.028320
2542149778,-0.447754,-0.186035,0.873779,2.052307,0.755310,0.610352,22.924805,24.243164,-4.028320
2544642498,-0.453125,-0.185303,0.866943,1.655579,0.999451,0.709534,22.924805,24.243164,-4.028320
2547147525,-0.449219,-0.182617,0.869141,1.960754,0.671387,0.694275,22.924805,24.243164,-4.028320
2549643938,-0.453125,-0.180908,0.867676,1.754761,1.068115,0.511169,23.510742,25.561523,-3.881836
2552144042,-0.450928,-0.182373,0.870850,1.594543,0.801086,0.335693,23.510742,25.561523,-3.881836
2554642916,-0.451172,-0.181885,0.866943,1.884460,1.029968,0.442505,23.510742,25.561523,-3.881836
2557195123,-0.448730,-0.182373,0.862793,1.556396,0.999451,0.633240,23.510742,25.561523,-3.881836
2559692766,-0.451904,-0.182129,0.871582,1.762390,0.968933,0.480652,23.510742,25.561523,-3.881836
2562192871,-0.449707,-0.180176,0.863281,1.716614,0.831604,0.457764,23.510742,25.561523,-3.881836
2564692565,-0.449219,-0.182861,0.868164,1.701355,0.938416,0.221252,23.510742,25.561523,-3.881836
2567193901,-0.449463,-0.182373,0.867676,1.838684,0.823975,0.335693,22.851563,24.462891,-4.248047
2569696467,-0.450439,-0.179199,0.864990,1.770020,1.029968,0.183105,22.851563,24.462891,-4.248047
2572226931,-0.444824,-0.184814,0.861816,1.365662,0.755310,0.442505,22.851563,24.462891,-4.248047
2574742625,-0.447510,-0.182617,0.864746,1.670837,1.167297,0.549316,22.851563,24.462891,-4.248047
2577241909,-0.447266,-0.184570,0.864990,1.609802,0.740051,0.602722,22.851563,24.462891,-4.248047
2579746526,-0.447510,-0.187988,0.870605,1.838684,1.037598,0.717163,22.851563,24.462891,-4.248047
2582242118,-0.445313,-0.188232,0.871094,1.502991,0.900269,0.564575,22.851563,24.462891,-4.248047
2584823454,-0.452637,-0.185059,0.869629,1.785278,1.052856,0.640869,22.851563,24.462891,-4.248047
2588293816,-0.449463,-0.186035,0.867432,1.693726,1.205444,0.747681,22.705078,24.755859,-4.101563
2590874330,-0.446777,-0.184814,0.864990,1.266479,1.129150,0.747681,22.705078,24.755859,-4.101563
2594374231,-0.449219,-0.186279,0.865479,1.495361,1.014709,0.839233,22.705078,24.755859,-4.101563
2597339977,-0.449463,-0.187012,0.864014,1.251221,0.961304,0.617981,22.705078,24.755859,-4.101563
2600325005,-0.450439,-0.181152,0.859375,1.220703,0.885010,0.732422,22.705078,24.755859,-4.101563
2603376084,-0.450928,-0.184082,0.869629,1.388550,1.251221,0.511169,22.705078,24.755859,-4.101563
2606373010,-0.450195,-0.180908,0.866211,1.014709,0.877380,0.320435,22.705078,24.755859,-4.101563
2609343679,-0.450684,-0.177979,0.865967,1.220703,1.213074,0.640869,22.998047,25.488281,-4.248047
2611843784,-0.450928,-0.182617,0.868652,1.022339,1.144409,0.740051,22.998047,25.488281,-4.248047
2614343888,-0.450195,-0.179443,0.871094,0.984192,1.197815,0.488281,22.998047,25.488281,-4.248047
2617392506,-0.451172,-0.184814,0.868652,0.900269,0.938416,0.625610,22.998047,25.488281,-4.248047
2620344714,-0.452148,-0.179443,0.875000,1.220703,0.785828,0.534058,22.998047,25.488281,-4.248047
2622843587,-0.451172,-0.186035,0.872559,0.793457,0.823975,0.320435,22.998047,25.488281,-4.248047
2625371590,-0.446289,-0.183838,0.867920,0.984192,0.610352,0.190735,22.998047,25.488281,-4.248047
2628352515,-0.445557,-0.179688,0.869629,1.274109,1.113892,0.541687,23.364258,24.829102,-3.881836
2630918261,-0.447754,-0.178711,0.873047,0.877380,1.045227,0.091553,23.364258,24.829102,-3.881836
2633894263,-0.448730,-0.180176,0.868652,1.060486,0.869751,0.495911,23.364258,24.829102,-3.881836
2636392317,-0.441895,-0.178711,0.873779,0.785828,1.052856,0.244141,23.364258,24.829102,-3.881836
2638893652,-0.445557,-0.182861,0.863525,0.671387,0.984192,0.122070,23.364258,24.829102,-3.881836
2641392526,-0.443115,-0.180908,0.864502,0.732422,1.091003,0.152588,23.364258,24.829102,-3.881836
2643894682,-0.446777,-0.182129,0.867432,0.717163,1.205444,0.320435,23.364258,24.829102,-3.881836
2646393556,-0.448242,-0.185059,0.865234,0.297546,1.182556,0.000000,23.364258,24.829102,-3.881836
2648895711,-0.447021,-0.182861,0.860596,0.633240,1.312256,0.244141,22.412109,25.048828,-4.541016
2651439714,-0.445801,-0.184326,0.861572,0.534058,0.984192,0.289917,22.412109,25.048828,-4.541016
2653943100,-0.450928,-0.187500,0.861572,0.640869,1.335144,0.083923,22.412109,25.048828,-4.541016
2656443615,-0.454590,-0.184082,0.864502,0.663757,1.037598,-0.106812,22.412109,25.048828,-4.541016
2658944950,-0.453857,-0.186523,0.865723,0.541687,1.060486,0.160217,22.412109,25.048828,-4.541016
2661443414,-0.455322,-0.186768,0.861328,0.701904,1.197815,0.152588,22.412109,25.048828,-4.541016
2663944339,-0.458496,-0.184082,0.869873,0.396729,1.220703,0.015259,22.412109,25.048828,-4.541016
2666523623,-0.458496,-0.187744,0.859131,0.602722,1.129150,0.137329,22.412109,25.048828,-4.541016
2669493882,-0.458740,-0.186768,0.862549,0.778198,1.113892,-0.038147,22.485352,25.415039,-4.174805
2671989884,-0.458984,-0.185547,0.864502,0.747681,0.617981,0.282288,22.485352,25.415039,-4.174805
2674492861,-0.460938,-0.192627,0.860596,1.022339,0.877380,-0.068665,22.485352,25.415039,-4.174805
2677074606,-0.457520,-0.193359,0.865234,0.625610,0.724792,0.007629,22.485352,25.415039,-4.174805
2679993993,-0.458984,-0.194092,0.871094,0.892639,0.518799,0.099182,22.485352,25.415039,-4.174805
2682492457,-0.455811,-0.193848,0.863525,0.595093,0.694275,0.015259,22.485352,25.415039,-4.174805
2684995433,-0.453369,-0.197021,0.864502,0.854492,0.823975,0.328064,22.485352,25.415039,-4.174805
2687497589,-0.455322,-0.196533,0.860352,0.892639,0.312805,0.099182,22.485352,24.975586,-4.174805
2690045694,-0.452393,-0.195801,0.872314,0.762939,0.717163,0.320435,22.485352,24.975586,-4.174805
2692540875,-0.450928,-0.199219,0.862305,0.579834,0.495911,0.305176,22.485352,24.975586,-4.174805
2695089801,-0.449219,-0.199951,0.862305,1.037598,0.694275,0.434875,22.485352,24.975586,-4.174805
2697585803,-0.448730,-0.202393,0.862305,0.984192,0.404358,0.488281,22.485352,24.975586,-4.174805
2700556061,-0.449707,-0.201172,0.857178,0.991821,0.381470,0.305176,22.485352,24.975586,-4.174805
2703053294,-0.444580,-0.205322,0.864014,1.022339,0.495911,0.457764,22.485352,24.975586,-4.174805
2705557091,-0.444824,-0.203857,0.860596,1.312256,0.495911,0.434875,22.485352,24.975586,-4.174805
2708616786,-0.444824,-0.207520,0.866699,1.174927,0.358582,0.930786,23.583984,24.902344,-4.541016
2711103352,-0.444336,-0.204102,0.865967,1.174927,0.633240,0.839233,23.583984,24.902344,-4.541016
2713601406,-0.445801,-0.204590,0.864502,1.571655,0.671387,0.854492,23.583984,24.902344,-4.541016
2716102331,-0.446289,-0.204346,0.869385,1.220703,0.823975,1.083374,23.583984,24.902344,-4.541016
2718613102,-0.446777,-0.203125,0.871094,1.281738,0.656128,1.296997,22.631836,25.268555,-3.881836
2721185822,-0.445557,-0.200928,0.871094,1.647949,0.808716,1.319885,22.631836,25.268555,-3.881836
2724113824,-0.444580,-0.201172,0.873047,1.495361,0.579834,1.060486,22.631836,25.268555,-3.881836
2727157929,-0.446289,-0.202881,0.873535,1.548767,1.182556,1.235962,23.071289,24.829102,-4.028320
2730153214,-0.450684,-0.199463,0.875977,1.930237,1.174927,0.991821,23.071289,24.829102,-4.028320
2732653319,-0.447266,-0.195557,0.872803,1.976013,0.793457,1.358032,23.071289,24.829102,-4.028320
2735733526,-0.451660,-0.194580,0.873291,1.861572,1.091003,1.235962,23.071289,24.829102,-4.028320
2738679990,-0.449951,-0.192627,0.869629,2.090454,1.197815,1.411438,23.291016,24.462891,-4.101563
2741733941,-0.450195,-0.193359,0.871094,2.075195,1.243591,1.106262,23.291016,24.462891,-4.101563
2744706662,-0.447510,-0.189209,0.869385,2.220154,1.190186,1.129150,23.291016,24.462891,-4.101563
2747703998,-0.448975,-0.193359,0.870850,1.831055,1.144409,1.205444,22.778320,25.122070,-4.467773
2750709949,-0.449707,-0.187988,0.868408,1.777649,0.961304,0.946045,22.778320,25.122070,-4.467773
2753203900,-0.449951,-0.186523,0.867676,1.976013,1.136780,1.190186,22.778320,25.122070,-4.467773
2755754876,-0.448242,-0.185059,0.864746,2.014160,1.243591,0.907898,22.778320,25.122070,-4.467773
2758216827,-0.449951,-0.186768,0.864746,1.876831,1.258850,0.755310,22.851563,25.634766,-4.101563
2760756316,-0.452148,-0.188477,0.861816,1.770020,1.037598,1.113892,22.851563,25.634766,-4.101563
2763709754,-0.447998,-0.186279,0.860596,2.197266,1.121521,1.060486,22.851563,25.634766,-4.101563
2766211090,-0.453613,-0.186768,0.861328,1.747131,1.182556,0.617981,22.485352,25.708008,-4.760742
2768775605,-0.452393,-0.187256,0.863037,1.579285,1.220703,1.007080,22.485352,25.708008,-4.760742
2771256017,-0.454102,-0.185547,0.868896,2.029419,0.999451,0.816345,22.485352,25.708008,-4.760742
2773755301,-0.451660,-0.187500,0.864014,1.708984,0.999451,0.846863,22.485352,25.708008,-4.760742
2776284124,-0.454834,-0.183105,0.862793,1.571655,1.136780,0.930786,23.583984,24.609375,-4.101563
2779257254,-0.450439,-0.186279,0.871582,1.754761,1.029968,1.014709,23.583984,24.609375,-4.101563
2781756538,-0.448975,-0.182861,0.867676,1.396179,0.991821,0.930786,23.583984,24.609375,-4.101563
2784307515,-0.453369,-0.185547,0.863525,1.655579,0.946045,1.167297,23.583984,24.609375,-4.101563
2786809671,-0.451904,-0.181152,0.866699,1.396179,1.182556,0.946045,23.583984,24.609375,-4.101563
2789307314,-0.450928,-0.177490,0.867188,1.190186,0.694275,0.885010,23.583984,24.609375,-4.101563
2791835316,-0.453125,-0.180908,0.868164,1.129150,1.251221,0.694275,23.583984,24.609375,-4.101563
2794894600,-0.450439,-0.181885,0.865234,1.029968,0.892639,0.900269,23.583984,24.609375,-4.101563
2797812346,-0.454102,-0.181641,0.868896,1.327515,0.885010,0.785828,22.924805,24.682617,-4.907227
2800308759,-0.454590,-0.181152,0.857178,1.197815,1.045227,0.724792,22.924805,24.682617,-4.907227
2802813786,-0.451416,-0.183350,0.862549,1.159668,0.823975,0.823975,22.924805,24.682617,-4.907227
2805313481,-0.446045,-0.182617,0.864990,1.174927,0.938416,0.663757,22.924805,24.682617,-4.907227
2807859124,-0.451172,-0.185303,0.870850,0.991821,0.999451,0.694275,22.924805,24.682617,-4.907227
2810858101,-0.450195,-0.183594,0.867676,0.793457,1.113892,0.389099,22.924805,24.682617,-4.907227
2813388154,-0.452148,-0.180908,0.869141,0.793457,1.281738,0.694275,22.924805,24.682617,-4.907227
2816367028,-0.452881,-0.184570,0.863770,0.709534,0.869751,0.427246,22.924805,24.682617,-4.907227
2818871646,-0.451172,-0.185791,0.874023,1.174927,1.144409,0.343323,22.851563,25.488281,-4.248047
2821404981,-0.449219,-0.189941,0.865967,0.801086,1.144409,0.534058,22.851563,25.488281,-4.248047
2823908778,-0.451660,-0.189209,0.861816,0.755310,1.037598,0.221252,22.851563,25.488281,-4.248047
2826448678,-0.450928,-0.190186,0.870361,0.999451,1.075745,0.335693,22.851563,25.488281,-4.248047
2829407860,-0.449219,-0.192871,0.870850,0.953674,1.136780,0.450134,22.851563,25.488281,-4.248047
2831983041,-0.452637,-0.191650,0.863281,0.854492,1.083374,0.389099,22.851563,25.488281,-4.248047
2834987762,-0.454590,-0.190674,0.870117,0.976563,1.106262,0.183105,22.851563,25.488281,-4.248047
2837958431,-0.453857,-0.189697,0.871338,0.770569,0.854492,0.228882,22.998047,24.462891,-4.101563
2840979972,-0.453125,-0.192871,0.869873,0.953674,0.999451,0.221252,22.998047,24.462891,-4.101563
2843957205,-0.454834,-0.190430,0.869141,0.686646,1.243591,0.045776,22.998047,24.462891,-4.101563
2846478233,-0.456299,-0.187256,0.865723,1.235962,1.274109,0.198364,22.998047,24.462891,-4.101563
2849454645,-0.453125,-0.191650,0.868896,1.037598,1.228333,0.175476,22.998047,24.462891,-4.101563
2852056493,-0.456543,-0.188477,0.872559,0.869751,1.296997,0.175476,22.998047,24.462891,-4.101563
2855035778,-0.453125,-0.190186,0.873535,1.296997,1.052856,0.183105,22.998047,24.462891,-4.101563
2858025729,-0.453613,-0.189453,0.873535,0.892639,1.472473,0.396729,23.071289,24.682617,-4.467773
2860534039,-0.455078,-0.188965,0.875488,0.793457,1.129150,0.381470,23.071289,24.682617,-4.467773
2863546144,-0.452393,-0.192627,0.867676,0.801086,1.373291,0.358582,23.071289,24.682617,-4.467773
2866514352,-0.455811,-0.192627,0.867188,1.037598,1.327515,0.366211,23.071289,24.682617,-4.467773
2869011174,-0.455078,-0.193115,0.869141,0.724792,1.388550,0.122070,23.071289,24.682617,-4.467773
2871507997,-0.452393,-0.191895,0.866943,0.656128,1.281738,0.213623,23.071289,24.682617,-4.467773
2874006460,-0.452393,-0.189209,0.865967,1.037598,1.106262,0.198364,23.071289,24.682617,-4.467773
2876509437,-0.451416,-0.194336,0.864258,0.755310,1.312256,0.251770,22.338867,24.829102,-4.174805
2879009541,-0.454590,-0.193115,0.861572,0.900269,1.327515,0.106812,22.338867,24.829102,-4.174805
2881558056,-0.457520,-0.192139,0.863770,0.991821,1.068115,0.175476,22.338867,24.829102,-4.174805
2884058161,-0.456543,-0.197021,0.859619,1.258850,1.464844,0.190735,22.338867,24.829102,-4.174805
2887093240,-0.456787,-0.196777,0.860840,0.801086,1.380920,0.076294,22.338867,24.829102,-4.174805
2890057345,-0.458496,-0.194092,0.864258,1.007080,1.365662,0.328064,22.338867,24.829102,-4.174805
2892559501,-0.454346,-0.194824,0.860107,1.327515,1.052856,0.114441,22.338867,24.829102,-4.174805
2895137554,-0.462402,-0.196289,0.857666,1.029968,1.190186,0.190735,22.338867,24.829102,-4.174805
2898142275,-0.456055,-0.196289,0.863770,1.060486,0.785828,0.152588,23.071289,24.536133,-4.174805
2901146175,-0.456299,-0.194824,0.858398,0.976563,1.091003,0.198364,23.071289,24.536133,-4.174805
2904110280,-0.459717,-0.200684,0.862793,1.014709,0.915527,0.305176,23.071289,24.536133,-4.174805
2907134282,-0.460938,-0.195801,0.860840,1.235962,0.900269,0.556946,23.071289,24.536133,-4.174805
2909608951,-0.457275,-0.195313,0.864990,0.816345,0.869751,0.488281,23.071289,24.536133,-4.174805
2912107415,-0.460693,-0.197021,0.870605,1.068115,0.694275,0.221252,23.071289,24.536133,-4.174805
2914607519,-0.457520,-0.197754,0.859619,1.068115,0.381470,0.495911,23.071289,24.536133,-4.174805
2917166701,-0.457764,-0.195313,0.854736,1.159668,0.526428,0.465393,22.485352,24.682617,-3.588867
2919663113,-0.455322,-0.194824,0.856689,0.885010,0.572205,0.442505,22.485352,24.682617,-3.588867
2922237474,-0.456299,-0.195557,0.862061,1.129150,0.701904,0.511169,22.485352,24.682617,-3.588867
2925206092,-0.456055,-0.194824,0.863037,0.808716,0.694275,0.404358,22.485352,24.682617,-3.588867
2928747838,-0.456543,-0.194824,0.862305,1.342773,0.694275,0.366211,22.485352,24.682617,-3.588867
2931736969,-0.453125,-0.193848,0.863525,1.037598,0.511169,0.457764,22.485352,24.682617,-3.588867
2934790510,-0.454834,-0.196777,0.862305,1.289368,0.404358,0.656128,22.485352,24.682617,-3.588867
2937788666,-0.448975,-0.194336,0.858154,1.060486,0.648499,0.556946,22.558594,25.488281,-3.955078
2940758105,-0.448486,-0.194824,0.867920,1.373291,0.427246,0.465393,22.558594,25.488281,-3.955078
2943787030,-0.448242,-0.197021,0.864014,1.228333,0.617981,0.350952,22.558594,25.488281,-3.955078
2946795443,-0.452637,-0.197754,0.863770,1.380920,0.419617,0.663757,22.558594,25.488281,-3.955078
2949765702,-0.448730,-0.198486,0.871826,1.426697,0.701904,0.572205,22.558594,25.488281,-3.955078
2952788474,-0.450684,-0.198730,0.870117,1.205444,0.648499,0.785828,22.558594,25.488281,-3.955078
2955791143,-0.447754,-0.198486,0.869873,1.457214,0.801086,0.473022,22.998047,24.902344,-4.394531
2958767555,-0.449463,-0.197266,0.865234,1.609802,0.862122,0.953674,22.998047,24.902344,-4.394531
2961305814,-0.452881,-0.194580,0.867432,1.632690,0.869751,0.808716,22.998047,24.902344,-4.394531
2964337611,-0.452637,-0.197754,0.873291,1.632690,0.762939,0.823975,22.998047,24.902344,-4.394531
2967303768,-0.448486,-0.194580,0.874023,1.754761,0.808716,0.938416,22.998047,24.902344,-4.394531
2970259667,-0.448486,-0.195068,0.874023,1.358032,0.755310,1.014709,22.998047,24.902344,-4.394531
2972764285,-0.451660,-0.193359,0.871338,1.335144,0.892639,0.930786,22.998047,24.902344,-4.394531
2975265620,-0.444824,-0.192871,0.862549,1.579285,0.976563,0.946045,23.071289,24.389648,-4.321289
2977839161,-0.449951,-0.189209,0.878906,1.716614,0.823975,0.907898,23.071289,24.389648,-4.321289
2980813932,-0.449463,-0.187744,0.864258,1.518250,0.854492,0.801086,23.071289,24.389648,-4.321289
2983312806,-0.451904,-0.185059,0.866699,1.602173,0.602722,0.930786,23.071289,24.389648,-4.321289
2985866244,-0.452637,-0.184570,0.868164,1.693726,0.854492,0.892639,23.071289,24.389648,-4.321289
2988368400,-0.449219,-0.179443,0.863525,1.335144,0.930786,0.686646,23.071289,24.389648,-4.321289
2991316095,-0.452148,-0.180664,0.862793,1.426697,1.022339,0.785828,23.071289,24.389648,-4.321289
2993845738,-0.454834,-0.177002,0.865479,1.380920,0.724792,0.755310,23.071289,24.389648,-4.321289
2996361022,-0.453857,-0.177490,0.860107,1.380920,1.052856,0.694275,22.705078,24.755859,-4.101563
2998867691,-0.450195,-0.179688,0.867432,1.129150,1.060486,0.373840,22.705078,24.755859,-4.101563
3001363693,-0.453125,-0.178467,0.859619,0.854492,1.029968,0.526428,22.705078,24.755859,-4.101563
3004415593,-0.457275,-0.180176,0.864746,1.167297,0.938416,0.556946,22.705078,24.755859,-4.101563
3007366159,-0.455566,-0.181641,0.855957,0.671387,0.816345,0.495911,23.071289,24.829102,-4.028320
3009944623,-0.457764,-0.177490,0.861572,0.869751,0.846863,0.434875,23.071289,24.829102,-4.028320
3012994061,-0.459961,-0.182861,0.857178,1.075745,1.106262,0.076294,23.071289,24.829102,-4.028320
3015993859,-0.457520,-0.180908,0.858643,0.648499,0.831604,0.282288,22.338867,24.975586,-4.321289
3018922682,-0.455566,-0.183350,0.858154,0.823975,0.572205,0.175476,22.338867,24.975586,-4.321289
3021996325,-0.456543,-0.184570,0.854736,0.762939,0.648499,0.137329,22.338867,24.975586,-4.321289
3025463815,-0.459717,-0.185303,0.858887,0.518799,0.679016,0.297546,22.338867,24.975586,-4.321289
3027993458,-0.454102,-0.190918,0.859375,0.808716,0.633240,0.038147,22.851563,24.462891,-4.248047
3030994076,-0.453613,-0.189941,0.854492,0.556946,0.373840,0.160217,22.851563,24.462891,-4.248047
3034045976,-0.453857,-0.190430,0.859375,0.457764,0.709534,0.297546,22.851563,24.462891,-4.248047
3037044543,-0.453125,-0.193359,0.856201,0.434875,0.358582,0.000000,23.071289,24.829102,-4.321289
3040035314,-0.453613,-0.193604,0.858887,0.686646,0.213623,0.411987,23.071289,24.829102,-4.321289
3043034701,-0.451416,-0.197754,0.857422,0.450134,0.312805,0.244141,23.071289,24.829102,-4.321289
3046034909,-0.446777,-0.197754,0.857666,0.679016,0.099182,0.137329,22.558594,25.195313,-4.980469
3049043732,-0.446289,-0.204102,0.872559,0.816345,0.114441,0.167847,22.558594,25.195313,-4.980469
3052016042,-0.445557,-0.202881,0.869141,0.724792,0.312805,0.083923,22.558594,25.195313,-4.980469
3054512044,-0.443848,-0.203857,0.863281,0.953674,0.053406,0.152588,22.558594,25.195313,-4.980469
3057011328,-0.447510,-0.203613,0.867676,0.991821,0.335693,0.205994,23.144531,24.755859,-4.541016
3059517587,-0.443359,-0.202393,0.870361,1.335144,0.480652,0.061035,23.144531,24.755859,-4.541016
3062013999,-0.443848,-0.202881,0.868408,1.289368,0.411987,0.297546,23.144531,24.755859,-4.541016
3064515745,-0.443848,-0.200928,0.871826,1.541138,0.495911,0.274658,23.144531,24.755859,-4.541016
3067116362,-0.448730,-0.201172,0.867676,1.220703,0.442505,0.312805,22.851563,25.195313,-4.101563
3070064057,-0.442139,-0.202148,0.874512,1.525879,0.358582,0.221252,22.851563,25.195313,-4.101563
3072562931,-0.442139,-0.202148,0.871582,1.472473,0.556946,0.335693,22.851563,25.195313,-4.101563
3075607856,-0.445557,-0.201904,0.875732,1.655579,0.885010,0.343323,22.851563,25.195313,-4.101563
3079096270,-0.443848,-0.200195,0.887451,1.693726,0.953674,0.701904,22.851563,25.195313,-4.101563
3082138734,-0.439697,-0.197998,0.878174,1.907349,0.877380,0.625610,22.851563,25.195313,-4.101563
3085572993,-0.445313,-0.196045,0.870361,1.190186,1.029968,0.648499,22.851563,25.195313,-4.101563
3088107969,-0.442871,-0.199951,0.875977,1.914978,1.274109,0.633240,22.778320,25.415039,-4.907227
3090633100,-0.448730,-0.196777,0.869629,1.831055,1.144409,0.587463,22.778320,25.415039,-4.907227
3093641922,-0.446777,-0.195801,0.866211,1.342773,1.541138,0.701904,22.778320,25.415039,-4.907227
3096619976,-0.450439,-0.193115,0.869141,1.884460,1.419067,0.595093,22.778320,25.415039,-4.907227
3099669825,-0.452637,-0.190674,0.872070,1.350403,1.335144,0.862122,22.778320,25.415039,-4.907227
3102702853,-0.451660,-0.186035,0.865723,1.327515,1.533508,0.427246,22.778320,25.415039,-4.907227
3105747368,-0.453857,-0.192383,0.859619,1.686096,1.487732,0.503540,22.998047,24.316406,-4.541016
3108626960,-0.453369,-0.189453,0.864746,1.434326,1.403809,0.419617,22.998047,24.316406,-4.541016
3111171373,-0.459229,-0.192871,0.863037,1.220703,1.289368,0.450134,22.998047,24.316406,-4.541016
3113628400,-0.463379,-0.186523,0.858398,1.274109,1.113892,0.526428,22.998047,24.316406,-4.541016
3116184710,-0.457275,-0.189941,0.853027,1.258850,1.029968,0.312805,22.998047,24.316406,-4.541016
3118677840,-0.460205,-0.190430,0.849609,1.228333,1.121521,0.221252,22.998047,24.316406,-4.541016
3121254663,-0.461670,-0.191895,0.860596,0.976563,0.923157,0.396729,22.998047,24.316406,-4.541016
3124754153,-0.458496,-0.191895,0.855713,1.129150,0.976563,0.679016,22.998047,24.316406,-4.541016
3128237643,-0.462646,-0.192871,0.848389,0.717163,0.831604,0.518799,23.291016,24.609375,-4.248047
3130761543,-0.457520,-0.196533,0.858154,0.686646,0.640869,0.473022,23.291016,24.609375,-4.248047
3133824109,-0.459961,-0.198486,0.862061,0.823975,0.473022,0.602722,23.291016,24.609375,-4.248047
3136719701,-0.455566,-0.195313,0.861084,1.121521,0.679016,0.587463,23.291016,24.609375,-4.248047
3139228011,-0.456299,-0.199219,0.861572,0.984192,0.343323,0.518799,23.291016,24.609375,-4.248047
3141725244,-0.454102,-0.197266,0.858398,1.205444,0.526428,0.671387,23.291016,24.609375,-4.248047
3144222477,-0.453857,-0.199463,0.861084,0.946045,0.190735,0.625610,23.291016,24.609375,-4.248047
3146728325,-0.451416,-0.198975,0.859375,1.159668,0.328064,0.434875,23.364258,24.682617,-4.174805
3149266994,-0.453369,-0.203369,0.861084,0.991821,0.328064,0.755310,23.364258,24.682617,-4.174805
3151768329,-0.453613,-0.203369,0.861572,1.159668,0.564575,0.442505,23.364258,24.682617,-4.174805
3154268844,-0.453369,-0.201660,0.863770,1.266479,0.236511,0.610352,23.364258,24.682617,-4.174805
3156799308,-0.449219,-0.201904,0.866943,1.403809,0.511169,0.434875,23.364258,24.682617,-4.174805
3159776131,-0.450195,-0.198975,0.868896,1.663208,0.518799,0.701904,23.364258,24.682617,-4.174805
3162270492,-0.452393,-0.197021,0.863770,1.586914,0.587463,0.701904,23.364258,24.682617,-4.174805
3164818186,-0.452881,-0.199707,0.866699,1.579285,0.740051,0.541687,23.217773,24.682617,-4.321289
3167321162,-0.452148,-0.198486,0.865234,1.571655,0.640869,0.518799,23.217773,24.682617,-4.321289
3169816754,-0.451904,-0.199707,0.868408,1.716614,0.877380,0.457764,23.217773,24.682617,-4.321289
3172318910,-0.448975,-0.192383,0.869629,1.785278,0.671387,0.564575,23.217773,24.682617,-4.321289
3174868246,-0.449707,-0.196045,0.866455,1.426697,0.808716,0.671387,23.217773,24.682617,-4.321289
3177821274,-0.449463,-0.195801,0.874756,1.884460,0.923157,0.564575,23.217773,24.682617,-4.321289
3180323430,-0.452881,-0.194580,0.869385,1.663208,1.045227,0.495911,23.217773,24.682617,-4.321289
3182873996,-0.455566,-0.193115,0.867920,1.792908,0.915527,0.511169,23.217773,24.682617,-4.321289
3185927537,-0.450195,-0.191406,0.863281,1.487732,0.885010,0.404358,22.924805,24.829102,-4.321289
3188849385,-0.453369,-0.193115,0.854248,1.525879,1.213074,0.625610,22.924805,24.829102,-4.321289
3191347439,-0.456787,-0.194824,0.859375,1.510620,0.823975,0.572205,22.924805,24.829102,-4.321289
3193893082,-0.455566,-0.188721,0.858154,1.579285,1.121521,0.724792,22.924805,24.829102,-4.321289
3196356673,-0.452637,-0.192627,0.856689,1.464844,0.732422,0.640869,22.924805,24.829102,-4.321289
3198907240,-0.459473,-0.190186,0.861084,1.266479,0.747681,0.404358,22.924805,24.829102,-4.321289
3201406934,-0.456055,-0.190186,0.861572,1.251221,0.656128,0.480652,22.924805,24.829102,-4.321289
3203904987,-0.457520,-0.194336,0.859131,1.396179,0.915527,0.343323,22.924805,24.829102,-4.321289
3206411656,-0.458008,-0.191162,0.857666,0.953674,0.610352,0.488281,22.851563,25.048828,-4.541016
3208919556,-0.455566,-0.189209,0.863525,1.304626,0.556946,0.442505,22.851563,25.048828,-4.541016
3211453711,-0.457764,-0.196289,0.853760,1.190186,0.595093,0.312805,22.851563,25.048828,-4.541016
3213906637,-0.460449,-0.193604,0.860352,1.403809,0.534058,0.404358,22.851563,25.048828,-4.541016
3216407151,-0.456299,-0.199219,0.867920,1.464844,0.495911,0.350952,22.851563,25.048828,-4.541016
3219435667,-0.458496,-0.193604,0.857666,1.220703,0.541687,0.495911,22.851563,25.048828,-4.541016
3222015361,-0.458008,-0.197510,0.860596,1.235962,0.389099,0.511169,22.851563,25.048828,-4.541016
3224989723,-0.455566,-0.197021,0.859131,1.388550,0.411987,0.541687,23.217773,24.389648,-3.588867
3227943571,-0.458496,-0.199951,0.858154,1.220703,0.000000,0.267029,23.217773,24.389648,-3.588867
3230516291,-0.456055,-0.198486,0.866455,1.358032,0.343323,0.465393,23.217773,24.389648,-3.588867
3233515678,-0.453613,-0.195068,0.866455,1.358032,0.183105,0.442505,23.217773,24.389648,-3.588867
3236566347,-0.450195,-0.195068,0.864990,0.961304,0.343323,0.350952,23.217773,24.389648,-3.588867
3239569017,-0.450684,-0.195801,0.870117,1.213074,0.343323,0.633240,23.217773,24.389648,-3.588867
3243059071,-0.450684,-0.193848,0.866211,1.083374,0.289917,0.442505,23.217773,24.389648,-3.588867
3246035483,-0.446289,-0.193115,0.877441,1.075745,0.427246,0.686646,22.338867,24.975586,-4.467773
3248493332,-0.450928,-0.194092,0.874023,0.877380,0.274658,0.579834,22.338867,24.975586,-4.467773
3251037334,-0.448975,-0.190430,0.869873,1.075745,0.534058,0.640869,22.338867,24.975586,-4.467773
3253614977,-0.446777,-0.190918,0.870361,1.152039,0.312805,0.671387,22.338867,24.975586,-4.467773
3256539287,-0.449463,-0.190674,0.874756,0.907898,0.602722,0.579834,22.338867,24.975586,-4.467773
3259037340,-0.447998,-0.188721,0.874268,0.602722,0.732422,0.312805,22.338867,24.975586,-4.467773
3261541547,-0.449707,-0.192627,0.867432,0.793457,0.686646,0.198364,22.338867,24.975586,-4.467773
3264038370,-0.449951,-0.193115,0.864502,0.778198,0.984192,0.427246,23.071289,24.682617,-4.174805
3266593039,-0.448242,-0.193359,0.870361,0.747681,1.091003,0.083923,23.071289,24.682617,-4.174805
3269584221,-0.448486,-0.193848,0.860596,0.991821,0.686646,0.053406,23.071289,24.682617,-4.174805
3272084325,-0.448730,-0.197021,0.859375,0.831604,1.243591,0.114441,23.071289,24.682617,-4.174805
3274664020,-0.451172,-0.199463,0.858887,1.121521,0.877380,0.030518,23.144531,25.048828,-4.248047
3277668330,-0.453613,-0.194336,0.862305,1.106262,0.854492,-0.267029,23.144531,25.048828,-4.248047
3280664025,-0.449951,-0.195801,0.862061,1.365662,0.953674,0.251770,23.144531,25.048828,-4.248047
3283621155,-0.453125,-0.200439,0.869629,1.327515,1.327515,0.045776,23.144531,25.048828,-4.248047
3286168850,-0.453125,-0.203857,0.858887,1.274109,1.052856,0.236511,22.558594,24.755859,-4.248047
3289165775,-0.454102,-0.205078,0.854004,1.625061,1.037598,0.045776,22.558594,24.755859,-4.248047
3292215214,-0.455322,-0.207031,0.861328,1.365662,1.029968,0.099182,22.558594,24.755859,-4.248047
3295136242,-0.452393,-0.204346,0.868164,1.396179,1.037598,0.625610,23.144531,25.048828,-4.101563
3297717987,-0.451416,-0.207520,0.863525,1.380920,1.091003,0.595093,23.144531,25.048828,-4.101563
3300719836,-0.450684,-0.203857,0.864258,1.502991,0.892639,0.465393,23.144531,25.048828,-4.101563
3303770915,-0.456543,-0.204346,0.864014,1.304626,0.648499,0.381470,23.144531,25.048828,-4.101563
3306769892,-0.455078,-0.203613,0.859863,1.449585,0.923157,0.785828,22.851563,25.195313,-4.394531
3309733177,-0.454590,-0.200195,0.869141,1.464844,0.762939,0.968933,22.851563,25.195313,-4.394531
3312765795,-0.453613,-0.200195,0.864990,1.373291,0.999451,0.946045,22.851563,25.195313,-4.394531
3315770515,-0.452881,-0.200928,0.866211,1.235962,0.694275,0.839233,22.778320,24.829102,-4.028320
3318744466,-0.454834,-0.201172,0.861816,1.304626,0.732422,0.953674,22.778320,24.829102,-4.028320
3321759033,-0.455078,-0.197754,0.868164,1.663208,0.686646,0.770569,22.778320,24.829102,-4.028320
3324776881,-0.452393,-0.196045,0.866211,1.243591,0.869751,0.968933,23.510742,24.682617,-4.760742
3327740166,-0.450439,-0.194824,0.868896,1.396179,0.495911,0.755310,23.510742,24.682617,-4.760742
3330745297,-0.451660,-0.197266,0.866211,1.281738,0.938416,1.045227,23.510742,24.682617,-4.760742
3333250324,-0.451660,-0.194092,0.865479,1.571655,0.877380,0.549316,23.510742,24.682617,-4.760742
3335740583,-0.452148,-0.195313,0.870361,1.686096,1.235962,0.778198,23.144531,25.195313,-4.101563
3338288277,-0.454102,-0.199219,0.867920,1.708984,0.961304,0.442505,23.144531,25.195313,-4.101563
3341320074,-0.450928,-0.198975,0.867188,1.632690,1.029968,0.572205,23.144531,25.195313,-4.101563
3343869410,-0.449219,-0.194336,0.868896,1.602173,0.892639,0.442505,23.144531,25.195313,-4.101563
3346790028,-0.452881,-0.195313,0.856201,1.701355,0.610352,0.541687,23.144531,25.195313,-4.101563
3349382030,-0.451904,-0.200928,0.858887,1.655579,1.052856,0.381470,23.144531,25.195313,-4.101563
3352371981,-0.458008,-0.198242,0.868408,2.075195,0.938416,0.793457,23.144531,25.195313,-4.101563
3355292599,-0.455322,-0.197266,0.862549,1.731873,0.724792,0.595093,23.217773,24.389648,-3.735352
3357863678,-0.455811,-0.195801,0.863037,1.815796,0.831604,0.686646,23.217773,24.389648,-3.735352
3360836398,-0.455811,-0.195801,0.869629,1.686096,0.663757,0.663757,23.217773,24.389648,-3.735352
3363336503,-0.461182,-0.196777,0.858398,2.037048,0.602722,0.747681,23.217773,24.389648,-3.735352
3365868607,-0.457764,-0.193604,0.856445,1.602173,0.808716,0.656128,23.217773,24.389648,-3.735352
