
Run: 1 Realtime: 0 Accel sens: 2 Gyro sens: 250

Time Captured,Accel X,Accel Y,Accel Z,Gyro X,Gyro Y,Gyro Z,Magn X,Magn Y,Magn Z
2943592,-0.444336,-0.188721,0.870850,0.923157,0.701904,0.381470,23.510742,24.389648,-4.028320
5899902,-0.443115,-0.189941,0.868652,0.709534,0.610352,0.343323,23.510742,24.389648,-4.028320
9406776,-0.443604,-0.198486,0.867188,1.083374,0.839233,0.572205,23.144531,25.048828,-3.955078
12459087,-0.443848,-0.196289,0.862305,0.923157,0.740051,0.328064,23.144531,25.048828,-3.955078
15945038,-0.446777,-0.200684,0.868652,1.167297,0.747681,0.556946,23.144531,25.048828,-3.955078
18940323,-0.449463,-0.200928,0.874023,1.182556,0.946045,0.801086,23.437500,24.755859,-4.541016
21885966,-0.446289,-0.197510,0.873779,1.251221,0.999451,0.297546,23.437500,24.755859,-4.541016
24581763,-0.444580,-0.200439,0.867676,1.319885,1.289368,0.717163,23.437500,24.755859,-4.541016
27547920,-0.447021,-0.201660,0.874512,1.281738,0.854492,0.495911,23.071289,24.829102,-4.028320
30959204,-0.451660,-0.199463,0.876465,1.228333,1.098633,0.740051,23.071289,24.829102,-4.028320
33959412,-0.449951,-0.200195,0.870117,1.296997,0.923157,0.816345,23.071289,24.829102,-4.028320
36969466,-0.451416,-0.200684,0.875244,1.434326,1.197815,0.747681,23.437500,24.902344,-3.955078
39984032,-0.455078,-0.197266,0.870605,1.632690,0.648499,0.961304,23.437500,24.902344,-3.955078
42994496,-0.451172,-0.193359,0.864014,1.335144,0.587463,0.724792,23.437500,24.902344,-3.955078
46073883,-0.451904,-0.194092,0.860596,1.594543,0.656128,0.701904,22.998047,24.755859,-3.955078
49036758,-0.449707,-0.187500,0.858887,1.426697,0.961304,0.526428,22.998047,24.755859,-4.248047
51993888,-0.446533,-0.187256,0.857666,1.678467,0.694275,0.984192,22.998047,24.755859,-4.248047
54985070,-0.450439,-0.187256,0.858154,1.937866,0.640869,0.495911,22.998047,24.755859,-4.248047
58014406,-0.448242,-0.183838,0.857178,1.449585,0.541687,0.541687,22.998047,24.462891,-4.980469
61057280,-0.446777,-0.187500,0.858154,1.510620,0.511169,0.671387,22.998047,24.462891,-4.980469
63990616,-0.446045,-0.188721,0.856689,1.350403,0.343323,0.579834,22.998047,24.462891,-4.980469
67006824,-0.447266,-0.191406,0.856934,1.243591,0.312805,0.511169,22.778320,24.975586,-4.028320
70010724,-0.450684,-0.187256,0.863281,1.228333,0.160217,0.282288,22.778320,24.975586,-4.028320
72878418,-0.450684,-0.186035,0.860107,1.190186,0.205994,0.366211,22.778320,24.975586,-4.028320
76146113,-0.448730,-0.192871,0.860840,1.258850,0.038147,0.320435,22.778320,24.975586,-4.028320
79170526,-0.453369,-0.192627,0.870117,1.220703,0.312805,0.633240,22.778320,24.975586,-4.028320
82611760,-0.450195,-0.192383,0.869385,1.167297,-0.099182,0.373840,22.778320,24.975586,-4.028320
85623044,-0.449951,-0.195557,0.876953,1.022339,0.320435,0.381470,22.778320,24.975586,-4.028320
88607252,-0.450439,-0.189941,0.870361,1.358032,-0.106812,0.373840,22.265625,25.195313,-3.808594
91672690,-0.453613,-0.195068,0.872070,1.083374,-0.045776,0.617981,22.265625,25.195313,-3.808594
94672898,-0.451660,-0.196289,0.876953,1.266479,-0.335693,0.221252,22.265625,25.195313,-3.808594
97617310,-0.449951,-0.197998,0.872070,1.365662,0.221252,0.358582,22.265625,25.195313,-3.808594
100617928,-0.444580,-0.197998,0.877197,1.289368,-0.053406,0.457764,22.265625,25.195313,-3.808594
103656700,-0.450684,-0.199219,0.878906,1.411438,-0.007629,0.587463,22.265625,25.195313,-3.808594
106640497,-0.447021,-0.205078,0.877686,1.823425,0.068665,0.389099,22.851563,24.755859,-3.955078
109634961,-0.443604,-0.200928,0.877197,1.655579,0.236511,0.465393,22.851563,24.755859,-3.955078
112643374,-0.439209,-0.198730,0.869629,1.625061,0.106812,0.404358,22.851563,24.755859,-3.955078
115164812,-0.439941,-0.199219,0.880859,1.831055,0.305176,0.518799,22.851563,24.755859,-3.955078
117666558,-0.437988,-0.201416,0.874268,1.739502,0.373840,0.289917,22.851563,24.755859,-3.955078
120675791,-0.436523,-0.199951,0.878418,1.876831,0.556946,0.480652,22.851563,24.755859,-3.955078
123840511,-0.435059,-0.201172,0.867188,1.693726,0.122070,0.617981,22.851563,24.755859,-3.955078
126749232,-0.441406,-0.202393,0.869629,1.762390,0.411987,0.701904,22.558594,24.609375,-4.394531
129702670,-0.439209,-0.197998,0.871582,1.922607,0.343323,0.968933,22.558594,24.609375,-4.394531
132672929,-0.438721,-0.204346,0.868408,1.678467,0.709534,0.740051,22.558594,24.609375,-4.394531
135215290,-0.438232,-0.201904,0.875732,1.770020,0.480652,1.075745,22.558594,24.609375,-4.394531
137714164,-0.442139,-0.198730,0.869873,2.189636,0.572205,0.930786,22.558594,24.609375,-4.394531
140279909,-0.439941,-0.199219,0.873535,2.098083,0.556946,1.083374,22.558594,24.609375,-4.394531
143221040,-0.441162,-0.196533,0.871826,2.159119,0.885010,0.923157,22.558594,24.609375,-4.394531
146225761,-0.436523,-0.193848,0.870605,1.892090,0.892639,1.129150,22.998047,24.755859,-4.101563
149220225,-0.443604,-0.195557,0.869873,1.823425,0.770569,0.938416,22.998047,24.755859,-4.101563
151800329,-0.443848,-0.197266,0.868164,1.922607,0.633240,1.281738,22.998047,24.755859,-4.101563
154765665,-0.442627,-0.193848,0.878662,2.128601,0.930786,1.022339,22.998047,24.755859,-4.101563
157781052,-0.441406,-0.192383,0.866943,2.029419,0.976563,1.205444,22.998047,24.755859,-4.101563
160277464,-0.443604,-0.195557,0.876465,2.319336,0.854492,1.106262,22.998047,24.755859,-4.101563
163288339,-0.441650,-0.189941,0.872070,2.090454,0.961304,1.045227,22.998047,24.755859,-4.101563
165783520,-0.447754,-0.192627,0.873779,1.869202,0.885010,0.869751,23.144531,24.902344,-3.955078
168283215,-0.444824,-0.190674,0.867676,1.861572,1.075745,0.854492,23.144531,24.902344,-3.955078
170783319,-0.441650,-0.193604,0.871094,1.792908,0.946045,0.907898,23.144531,24.902344,-3.955078
173868860,-0.442627,-0.189453,0.867432,1.853943,0.930786,0.823975,23.144531,24.902344,-3.955078
176830914,-0.444092,-0.189209,0.864990,1.838684,0.885010,0.968933,23.144531,24.902344,-3.955078
179827839,-0.444336,-0.186035,0.870850,1.884460,0.923157,0.846863,23.144531,24.902344,-3.955078
182853483,-0.447266,-0.187500,0.867920,1.815796,0.801086,0.694275,23.144531,24.902344,-3.955078
185835229,-0.446533,-0.191162,0.867188,1.708984,0.991821,0.946045,22.924805,23.950195,-4.760742
188330410,-0.443115,-0.187744,0.864258,1.693726,1.014709,0.946045,22.924805,23.950195,-4.760742
190920361,-0.442627,-0.185547,0.869141,1.747131,1.083374,0.686646,22.924805,23.950195,-4.760742
193833594,-0.445557,-0.188477,0.865234,1.205444,1.136780,0.801086,22.924805,23.950195,-4.760742
196384161,-0.444092,-0.190186,0.866455,1.602173,0.762939,0.946045,22.924805,23.950195,-4.760742
199427445,-0.443359,-0.192383,0.871338,1.289368,1.075745,0.953674,22.924805,23.950195,-4.760742
202382114,-0.441650,-0.191162,0.869873,1.434326,0.488281,0.793457,22.924805,23.950195,-4.760742
205427860,-0.442627,-0.192871,0.872559,1.174927,0.938416,0.854492,22.778320,24.536133,-4.467773
208467042,-0.448975,-0.190430,0.874268,1.365662,0.961304,0.839233,22.778320,24.536133,-4.467773
211386019,-0.442627,-0.189453,0.867676,1.022339,1.182556,0.816345,22.778320,24.536133,-4.467773
213882431,-0.438965,-0.187256,0.872559,1.029968,1.014709,0.747681,22.778320,24.536133,-4.467773
216428485,-0.440186,-0.193115,0.877686,1.174927,1.075745,0.793457,22.778320,24.536133,-4.467773
218943359,-0.439453,-0.194336,0.874756,1.113892,1.289368,0.679016,22.778320,24.536133,-4.467773
221930028,-0.438965,-0.195068,0.872070,1.358032,0.991821,0.633240,22.778320,24.536133,-4.467773
224936799,-0.446045,-0.189697,0.875244,0.984192,1.029968,0.770569,22.778320,24.536133,-4.467773
227930853,-0.436523,-0.188477,0.878662,1.296997,1.457214,0.732422,22.778320,24.682617,-4.028320
230519163,-0.441406,-0.191895,0.874512,1.152039,1.258850,0.808716,22.778320,24.682617,-4.028320
233503781,-0.438965,-0.192627,0.879883,1.052856,1.289368,0.686646,22.778320,24.682617,-4.028320
236504399,-0.439941,-0.193115,0.883545,1.342773,1.121521,0.411987,22.778320,24.682617,-4.028320
239509119,-0.439453,-0.192139,0.874512,1.457214,1.358032,0.534058,22.778320,24.682617,-4.028320
242529840,-0.442139,-0.188721,0.880859,1.373291,1.396179,0.488281,22.778320,24.682617,-4.028320
245542765,-0.448242,-0.193359,0.868408,1.266479,1.152039,0.328064,23.291016,24.462891,-4.394531
248513024,-0.441895,-0.195557,0.873779,1.449585,1.258850,0.679016,23.291016,24.462891,-4.394531
251019282,-0.442139,-0.193848,0.873291,1.091003,1.541138,0.526428,23.291016,24.462891,-4.394531
253517746,-0.443115,-0.195557,0.874512,1.243591,1.510620,0.160217,23.291016,24.462891,-4.394531
256011286,-0.447266,-0.194824,0.872803,1.594543,1.594543,0.350952,23.291016,24.462891,-4.394531
258499494,-0.442627,-0.197266,0.873535,1.014709,1.441956,0.267029,23.291016,24.462891,-4.394531
261048419,-0.445801,-0.192871,0.873779,1.625061,1.739502,0.221252,23.291016,24.462891,-4.394531
264053139,-0.446289,-0.196777,0.871094,1.426697,1.594543,0.335693,23.291016,24.462891,-4.394531
266552013,-0.448486,-0.190918,0.871826,1.289368,1.724243,0.007629,23.071289,24.975586,-4.174805
269073041,-0.444336,-0.192383,0.875977,1.663208,1.571655,0.213623,23.071289,24.975586,-4.174805
272077761,-0.448730,-0.193604,0.875244,1.457214,1.853943,0.328064,23.071289,24.975586,-4.174805
274595507,-0.448730,-0.196289,0.868652,1.525879,1.792908,0.289917,23.071289,24.975586,-4.174805
277602689,-0.446289,-0.191895,0.876465,1.586914,1.831055,0.251770,23.071289,24.975586,-4.174805
280579922,-0.447266,-0.192871,0.866943,1.472473,1.747131,0.129700,23.071289,24.975586,-4.174805
283082488,-0.448242,-0.192871,0.868164,1.487732,1.579285,0.419617,23.071289,24.975586,-4.174805
286126593,-0.447998,-0.192871,0.863770,1.518250,2.143860,0.221252,22.705078,23.876953,-4.541016
288664852,-0.449219,-0.194092,0.866455,1.380920,1.564026,0.213623,22.705078,23.876953,-4.541016
291670393,-0.449463,-0.193115,0.869873,1.373291,1.861572,0.053406,22.705078,23.876953,-4.541016
294643934,-0.446777,-0.193115,0.863525,1.396179,1.693726,0.274658,22.705078,23.876953,-4.541016
297139525,-0.452393,-0.192383,0.864014,1.518250,1.876831,0.404358,22.705078,23.876953,-4.541016
299632656,-0.451172,-0.195068,0.858643,1.403809,1.640320,0.205994,22.705078,23.876953,-4.541016
302139324,-0.452637,-0.193359,0.866699,1.472473,1.739502,0.160217,22.705078,23.876953,-4.541016
305224455,-0.454834,-0.193359,0.870117,1.541138,1.586914,0.175476,23.437500,24.902344,-4.101563
308271842,-0.450684,-0.195313,0.860352,1.510620,1.235962,0.083923,23.437500,24.902344,-4.101563
311268357,-0.451660,-0.191895,0.864014,1.411438,1.823425,0.007629,23.437500,24.902344,-4.101563
314192668,-0.455322,-0.192139,0.861084,1.510620,1.396179,0.267029,23.437500,24.902344,-4.101563
317190003,-0.454102,-0.194824,0.865234,1.373291,1.197815,0.419617,23.437500,24.902344,-4.101563
320229596,-0.458740,-0.192871,0.862061,1.312256,1.365662,0.175476,23.437500,24.902344,-4.101563
323532162,-0.457764,-0.196777,0.859375,1.174927,1.205444,0.259399,23.437500,24.902344,-4.101563
326292780,-0.452393,-0.190918,0.857910,1.495361,1.235962,0.404358,23.291016,24.902344,-4.394531
329263859,-0.454834,-0.192871,0.864990,1.258850,1.197815,0.549316,23.291016,24.902344,-4.394531
332731760,-0.454346,-0.193359,0.857178,0.892639,0.762939,0.343323,23.291016,24.902344,-4.394531
335770531,-0.453613,-0.194580,0.860840,1.113892,0.900269,0.350952,23.144531,24.755859,-3.808594
338911867,-0.455078,-0.195313,0.867920,0.991821,0.587463,0.106812,23.144531,24.755859,-3.808594
341742229,-0.455811,-0.195068,0.858398,0.999451,0.854492,0.541687,23.144531,24.755859,-3.808594
344231256,-0.455811,-0.193359,0.864746,1.197815,0.694275,0.267029,23.291016,25.048828,-4.248047
347322951,-0.455811,-0.193359,0.860840,0.991821,0.801086,0.282288,23.291016,25.048828,-4.248047
350316595,-0.450195,-0.196289,0.864746,1.327515,0.526428,0.358582,23.291016,25.048828,-4.248047
353830444,-0.450195,-0.194824,0.870605,1.106262,0.686646,0.328064,23.291016,25.048828,-4.248047
356822036,-0.452393,-0.193604,0.871094,1.251221,0.785828,0.656128,22.412109,24.755859,-4.394531
359838243,-0.448975,-0.193604,0.865479,0.808716,0.640869,0.579834,22.412109,24.755859,-4.394531
362811374,-0.450684,-0.195068,0.866211,1.167297,0.961304,0.320435,22.412109,24.755859,-4.394531
365440710,-0.450928,-0.196533,0.871094,0.770569,0.640869,0.358582,23.217773,24.096680,-4.174805
368364609,-0.453613,-0.189697,0.868164,1.052856,0.633240,0.259399,23.217773,24.096680,-4.174805
371382868,-0.452148,-0.190918,0.863770,1.144409,0.816345,0.381470,23.217773,24.096680,-4.174805
374419179,-0.450195,-0.188232,0.876953,0.747681,0.953674,0.366211,23.364258,24.096680,-4.174805
377362771,-0.450439,-0.189453,0.864990,0.915527,0.694275,0.534058,23.364258,25.268555,-3.588867
380364619,-0.456055,-0.189453,0.869141,0.762939,0.480652,0.198364,23.364258,25.268555,-3.588867
383375494,-0.447510,-0.187012,0.865479,0.633240,0.823975,0.320435,23.364258,25.268555,-3.588867
386370368,-0.450684,-0.188721,0.872559,0.778198,0.320435,0.556946,22.412109,24.755859,-3.808594
388872934,-0.450195,-0.193359,0.874756,0.724792,0.846863,0.587463,22.412109,24.755859,-3.808594
392631296,-0.448486,-0.187988,0.868652,0.602722,0.663757,0.556946,22.412109,24.755859,-3.808594
395433760,-0.448486,-0.190186,0.868408,0.617981,0.846863,0.442505,23.510742,24.389648,-3.881836
398421249,-0.455566,-0.191406,0.863525,0.610352,0.549316,0.549316,23.510742,24.389648,-3.881836
401476021,-0.452637,-0.190430,0.860840,0.343323,0.579834,0.236511,23.510742,24.389648,-3.881836
404422075,-0.450928,-0.189697,0.869873,0.465393,0.404358,0.450134,23.510742,24.389648,-3.881836
406919308,-0.448975,-0.192139,0.853760,0.732422,0.305176,0.274658,23.510742,24.389648,-3.881836
410012644,-0.447998,-0.195068,0.860840,0.205994,0.404358,0.404358,23.510742,24.389648,-3.881836
412927108,-0.452881,-0.197510,0.870361,0.381470,0.297546,0.518799,23.510742,24.389648,-3.881836
416019213,-0.449951,-0.195557,0.865723,0.389099,0.396729,0.076294,22.778320,24.096680,-4.174805
419018600,-0.448975,-0.199951,0.866455,0.328064,0.167847,0.335693,22.778320,24.096680,-4.174805
421930602,-0.450684,-0.198486,0.866211,0.289917,0.091553,0.610352,22.778320,24.096680,-4.174805
425057579,-0.447510,-0.199707,0.863770,0.419617,0.244141,0.213623,22.778320,24.096680,-4.174805
427985171,-0.444092,-0.201416,0.869385,0.770569,0.297546,0.343323,22.778320,24.096680,-4.174805
431051430,-0.443604,-0.198975,0.868896,0.587463,-0.099182,0.488281,22.778320,24.096680,-4.174805
434012663,-0.443359,-0.199707,0.865723,0.770569,-0.061035,0.602722,22.778320,24.096680,-4.174805
437049794,-0.439941,-0.201904,0.866699,0.366211,0.259399,0.534058,23.217773,23.803711,-4.321289
440066822,-0.438232,-0.202148,0.868896,0.862122,-0.144958,0.434875,23.217773,23.803711,-4.321289
443149081,-0.437500,-0.200195,0.862549,0.427246,-0.099182,0.740051,23.217773,23.803711,-4.321289
446128366,-0.440430,-0.204834,0.876953,0.808716,0.350952,0.694275,23.217773,23.803711,-4.321289
449046932,-0.438965,-0.206055,0.870117,0.686646,0.061035,0.419617,23.217773,23.803711,-4.321289
451566729,-0.435547,-0.204346,0.870605,0.869751,0.495911,0.556946,23.217773,23.803711,-4.321289
454598116,-0.434570,-0.205322,0.879883,0.976563,0.205994,0.595093,23.291016,25.341797,-4.687500
457093298,-0.437500,-0.201416,0.878906,0.915527,0.343323,0.862122,23.291016,25.341797,-4.687500
460069710,-0.438721,-0.200439,0.868652,1.213074,0.694275,0.564575,23.291016,25.341797,-4.687500
462610020,-0.440186,-0.202881,0.876221,1.174927,0.709534,0.755310,23.291016,25.341797,-4.687500
465612689,-0.438721,-0.201172,0.881104,0.999451,0.587463,0.625610,23.291016,25.341797,-4.687500
468109102,-0.439697,-0.206299,0.877197,1.037598,0.907898,0.518799,23.291016,25.341797,-4.687500
470706027,-0.442383,-0.200684,0.875732,1.419067,0.534058,0.579834,23.291016,25.341797,-4.687500
473670952,-0.437500,-0.204102,0.876709,1.365662,1.060486,0.579834,23.291016,25.341797,-4.687500
476664596,-0.440918,-0.200684,0.879639,1.426697,1.106262,0.457764,22.998047,24.609375,-4.394531
479168803,-0.444336,-0.195068,0.874023,1.159668,0.892639,0.518799,22.998047,24.609375,-4.394531
481662754,-0.441406,-0.206299,0.874023,1.441956,1.464844,0.518799,22.998047,24.609375,-4.394531
484248192,-0.440674,-0.199951,0.867676,1.350403,1.220703,0.633240,22.998047,24.609375,-4.394531
487177425,-0.441650,-0.198242,0.869629,1.480103,1.113892,0.549316,22.998047,24.609375,-4.394531
490185017,-0.441895,-0.197510,0.865723,1.564026,1.319885,0.823975,22.998047,24.609375,-4.394531
492689224,-0.438721,-0.194336,0.871094,1.373291,1.167297,0.778198,22.998047,24.609375,-4.394531
495680816,-0.447266,-0.199951,0.865723,1.457214,0.953674,0.442505,22.924805,24.536133,-4.321289
498183793,-0.445557,-0.196777,0.870605,1.205444,1.243591,0.579834,22.924805,24.536133,-4.321289
500680615,-0.447754,-0.197998,0.871094,1.350403,1.335144,0.694275,22.924805,24.536133,-4.321289
503248412,-0.445557,-0.200439,0.863525,1.457214,1.121521,0.366211,22.924805,24.536133,-4.321289
506243697,-0.446289,-0.199707,0.865234,1.708984,1.266479,0.205994,22.924805,24.536133,-4.321289
509744007,-0.443359,-0.196777,0.866211,1.380920,1.075745,0.495911,22.924805,24.536133,-4.321289
512736420,-0.450439,-0.198486,0.864014,1.510620,1.144409,0.640869,22.924805,24.536133,-4.321289
515746884,-0.447510,-0.196777,0.866455,1.411438,1.312256,0.549316,23.071289,24.682617,-4.614258
518243297,-0.445801,-0.201904,0.863037,1.579285,1.197815,0.373840,23.071289,24.682617,-4.614258
520744222,-0.447266,-0.197998,0.856201,1.594543,0.915527,0.167847,23.071289,24.682617,-4.614258
523322685,-0.448730,-0.195801,0.865723,1.625061,0.984192,0.267029,23.071289,24.682617,-4.614258
526288021,-0.450684,-0.196777,0.863525,1.693726,0.907898,0.671387,23.071289,24.682617,-4.614258
529343613,-0.447998,-0.196777,0.866211,1.533508,0.869751,0.183105,23.071289,24.682617,-4.614258
532361872,-0.446045,-0.193115,0.864746,1.541138,0.747681,0.488281,23.071289,24.682617,-4.614258
535351003,-0.448486,-0.197998,0.865967,1.556396,0.930786,0.419617,23.217773,24.975586,-4.907227
538850083,-0.448242,-0.200195,0.864990,1.724243,0.839233,0.534058,23.217773,24.975586,-4.907227
542328650,-0.449463,-0.195801,0.869385,1.480103,0.999451,0.389099,23.217773,24.975586,-4.907227
544889472,-0.442871,-0.195801,0.861816,1.335144,0.831604,0.396729,23.217773,24.975586,-4.907227
547845372,-0.448486,-0.195068,0.859863,1.579285,0.869751,0.495911,23.217773,24.975586,-4.907227
550844349,-0.444824,-0.197021,0.860352,1.220703,0.831604,0.305176,23.217773,24.975586,-4.907227
553456864,-0.445801,-0.198486,0.862061,1.396179,0.816345,0.541687,22.338867,24.682617,-4.321289
556337687,-0.442627,-0.195801,0.864258,1.525879,0.854492,0.350952,22.338867,24.682617,-4.321289
558833279,-0.444336,-0.195313,0.864258,1.228333,0.938416,0.328064,22.338867,24.682617,-4.321289
561336255,-0.446289,-0.199951,0.863037,1.380920,0.846863,0.465393,22.338867,24.682617,-4.321289
563934411,-0.441895,-0.198486,0.862549,1.106262,0.724792,0.389099,22.338867,24.682617,-4.321289
566896875,-0.445801,-0.197510,0.866943,1.304626,1.228333,0.434875,22.338867,24.682617,-4.321289
569384672,-0.445557,-0.202148,0.873291,1.289368,0.709534,0.328064,22.338867,24.682617,-4.321289
572413187,-0.445557,-0.202393,0.875000,1.304626,0.762939,0.457764,22.338867,24.682617,-4.321289
575945087,-0.445068,-0.206787,0.869385,1.457214,0.976563,0.434875,23.291016,25.341797,-3.369141
579015449,-0.444092,-0.202637,0.869873,1.296997,0.785828,0.480652,23.291016,25.341797,-3.369141
581979964,-0.444580,-0.202637,0.869873,1.487732,1.174927,0.328064,23.291016,25.341797,-3.369141
584976069,-0.446045,-0.202393,0.867188,1.129150,1.296997,0.640869,23.291016,25.341797,-3.369141
588014020,-0.444092,-0.199951,0.873047,1.533508,1.091003,0.587463,23.291016,25.341797,-3.369141
591017510,-0.444336,-0.201416,0.869629,1.441956,1.213074,0.709534,23.291016,25.341797,-3.369141
593947564,-0.449463,-0.202393,0.868408,1.617432,1.174927,0.679016,22.631836,25.415039,-4.174805
597029823,-0.448730,-0.198975,0.870361,1.594543,1.365662,0.785828,22.631836,25.415039,-4.174805
599981620,-0.445313,-0.199219,0.867188,1.533508,0.984192,0.846863,22.631836,25.415039,-4.174805
602480494,-0.446289,-0.197754,0.868164,1.472473,1.426697,0.572205,22.631836,25.415039,-4.174805
605491368,-0.448242,-0.198486,0.868164,1.502991,0.961304,0.549316,22.631836,25.415039,-4.174805
609029012,-0.450439,-0.191650,0.860840,1.190186,1.258850,0.740051,22.631836,25.415039,-4.174805
611571783,-0.450684,-0.192383,0.865723,1.098633,1.327515,0.740051,22.631836,25.415039,-4.174805
614551478,-0.453369,-0.193604,0.872803,1.556396,1.373291,0.755310,23.876953,24.462891,-3.955078
617549634,-0.452148,-0.189697,0.862305,1.121521,1.129150,0.671387,23.876953,24.462891,-3.955078
620591278,-0.447998,-0.193359,0.863281,1.159668,1.274109,0.701904,23.876953,24.462891,-3.955078
623560716,-0.449219,-0.193848,0.864746,1.098633,1.106262,0.862122,23.876953,24.462891,-3.955078
626564616,-0.452393,-0.193848,0.865479,1.243591,1.205444,0.640869,23.876953,24.462891,-3.955078
629642773,-0.449219,-0.195068,0.862305,0.808716,0.900269,0.694275,23.876953,24.462891,-3.955078
632603185,-0.453125,-0.195068,0.865479,0.686646,0.862122,0.656128,23.876953,24.462891,-3.955078
636156419,-0.454102,-0.201660,0.864258,0.755310,1.007080,0.343323,23.583984,24.609375,-4.248047
639071293,-0.449463,-0.195313,0.859619,0.961304,0.900269,0.671387,23.583984,24.609375,-4.248047
642115398,-0.447754,-0.197754,0.863525,0.778198,0.923157,0.602722,23.583984,24.609375,-4.248047
645205042,-0.451172,-0.200928,0.864990,0.999451,0.747681,0.808716,23.583984,24.609375,-4.248047
648272121,-0.448486,-0.200439,0.864746,0.717163,0.984192,0.747681,23.583984,24.609375,-4.248047
651134893,-0.449463,-0.200195,0.867432,0.984192,0.679016,0.556946,23.583984,24.609375,-4.248047
654114998,-0.447998,-0.204590,0.865967,0.816345,0.732422,0.701904,23.364258,24.682617,-3.881836
657116026,-0.450684,-0.207764,0.866943,0.717163,0.610352,0.556946,23.364258,24.682617,-3.881836
659616130,-0.449951,-0.205811,0.865479,1.144409,0.793457,0.709534,23.364258,24.682617,-3.881836
662675005,-0.449463,-0.205322,0.874268,0.991821,0.816345,0.923157,23.364258,24.682617,-3.881836
665670700,-0.446045,-0.204346,0.869629,1.121521,0.846863,0.854492,23.364258,24.682617,-3.881836
668710292,-0.447998,-0.201172,0.865234,1.182556,0.648499,0.793457,23.364258,24.682617,-3.881836
671663730,-0.446777,-0.202881,0.869141,0.869751,1.083374,0.732422,23.364258,24.682617,-3.881836
674226604,-0.445801,-0.201904,0.866455,0.900269,0.755310,0.679016,22.851563,24.902344,-3.808594
677259222,-0.450684,-0.200928,0.862061,0.961304,1.083374,0.656128,22.851563,24.902344,-3.808594
680211840,-0.451904,-0.202148,0.863281,1.091003,0.816345,0.946045,22.851563,24.902344,-3.808594
683208765,-0.446289,-0.205078,0.863281,1.251221,0.709534,0.892639,22.851563,24.902344,-3.808594
686185178,-0.445068,-0.201416,0.871094,1.464844,0.961304,0.717163,22.851563,24.902344,-3.808594
688738206,-0.448730,-0.202881,0.858643,1.182556,0.808716,0.686646,22.851563,24.902344,-3.808594
691740875,-0.443848,-0.203613,0.860107,1.487732,0.907898,0.953674,22.851563,24.902344,-3.808594
694773903,-0.452148,-0.206543,0.862305,1.205444,0.816345,1.007080,23.291016,24.023438,-4.541016
697740469,-0.451416,-0.206055,0.871094,1.457214,0.701904,0.976563,23.291016,24.023438,-4.541016
700744780,-0.443848,-0.206299,0.871582,1.342773,0.648499,0.869751,23.291016,24.023438,-4.541016
703754833,-0.447021,-0.208252,0.870605,1.495361,0.549316,0.686646,23.071289,24.243164,-4.321289
706299656,-0.449219,-0.205566,0.866455,1.373291,0.648499,1.022339,23.071289,24.243164,-4.321289
709271966,-0.448975,-0.204590,0.869385,1.335144,0.816345,1.075745,23.071289,24.243164,-4.321289
711776584,-0.447754,-0.205811,0.864746,1.197815,0.495911,1.159668,23.071289,24.243164,-4.321289
714776381,-0.447998,-0.210205,0.869141,1.777649,0.595093,0.930786,23.364258,24.536133,-4.028320
717778640,-0.449463,-0.205811,0.867432,1.533508,0.473022,0.991821,23.364258,24.536133,-4.028320
720809206,-0.447754,-0.207764,0.871338,1.716614,0.473022,0.961304,23.364258,24.536133,-4.028320
723853722,-0.444336,-0.201416,0.869385,1.731873,0.587463,1.098633,23.291016,25.195313,-4.394531
726830545,-0.451904,-0.200195,0.862793,1.739502,0.770569,1.068115,23.291016,25.195313,-4.394531
729329008,-0.442383,-0.197266,0.865967,1.998901,0.785828,0.724792,23.291016,25.195313,-4.394531
732390754,-0.446045,-0.199707,0.865479,1.937866,0.801086,0.785828,23.291016,25.195313,-4.394531
735345423,-0.445313,-0.194580,0.868408,1.792908,0.885010,0.892639,23.657227,24.243164,-4.321289
738388708,-0.441162,-0.198242,0.869873,2.067566,0.854492,1.037598,23.657227,24.243164,-4.321289
740939274,-0.448242,-0.196289,0.868164,2.189636,0.900269,0.709534,23.657227,24.243164,-4.321289
743864405,-0.443848,-0.193604,0.864258,2.113342,0.854492,0.793457,22.851563,24.755859,-4.248047
746862971,-0.443848,-0.194580,0.870850,2.243042,0.877380,0.907898,22.851563,24.755859,-4.248047
749900102,-0.442383,-0.195557,0.865967,1.937866,0.724792,0.640869,22.851563,24.755859,-4.248047
752386668,-0.443359,-0.199463,0.867920,1.731873,1.075745,0.785828,22.924805,25.268555,-4.467773
755390978,-0.444336,-0.196777,0.868408,1.853943,1.045227,0.869751,22.924805,25.268555,-4.467773
758399801,-0.442627,-0.196289,0.868164,2.082825,1.419067,0.854492,22.924805,25.268555,-4.467773
760905649,-0.447021,-0.195313,0.864014,2.189636,1.060486,0.640869,22.924805,25.268555,-4.467773
763562882,-0.448975,-0.192627,0.872314,1.914978,1.068115,0.450134,23.291016,24.902344,-4.541016
766410475,-0.448486,-0.192871,0.865479,1.945496,1.052856,0.968933,23.291016,24.902344,-4.541016
768917143,-0.446777,-0.193115,0.862549,2.006531,1.190186,0.892639,23.291016,24.902344,-4.541016
771420120,-0.448486,-0.196289,0.861572,1.571655,1.052856,0.877380,23.291016,24.902344,-4.541016
774421968,-0.447998,-0.195801,0.869629,1.716614,0.976563,0.839233,23.071289,24.243164,-4.467773
776997970,-0.449707,-0.191895,0.865723,1.457214,1.358032,0.839233,23.071289,24.243164,-4.467773
780041255,-0.448730,-0.197266,0.861084,1.731873,1.007080,0.923157,23.071289,24.243164,-4.467773
782979924,-0.448730,-0.194336,0.864746,1.434326,1.174927,1.091003,23.510742,24.536133,-4.907227
786002285,-0.449219,-0.193115,0.865967,1.663208,1.121521,0.831604,23.510742,24.536133,-4.907227
789009878,-0.450928,-0.191406,0.861328,1.518250,1.029968,0.991821,23.510742,24.536133,-4.907227
791958393,-0.452393,-0.194824,0.856934,1.464844,0.915527,0.877380,23.510742,24.536133,-4.907227
794551626,-0.452393,-0.193604,0.859131,1.251221,0.900269,1.205444,23.510742,24.536133,-4.907227
797506295,-0.454102,-0.194336,0.869629,1.060486,0.709534,1.091003,23.510742,24.536133,-4.907227
800092553,-0.455811,-0.191895,0.864746,1.205444,0.915527,1.113892,23.510742,24.536133,-4.907227
803514095,-0.454834,-0.190430,0.859131,1.121521,0.923157,1.045227,22.705078,24.462891,-4.248047
806594713,-0.450439,-0.196289,0.860107,1.091003,0.717163,0.961304,22.705078,24.462891,-4.248047
809543638,-0.452393,-0.195557,0.866455,0.885010,0.343323,0.793457,22.705078,24.462891,-4.248047
812573384,-0.452393,-0.199707,0.864258,1.197815,0.511169,1.060486,22.705078,24.462891,-4.248047
815548976,-0.448975,-0.203857,0.867432,0.755310,0.556946,0.770569,22.705078,24.462891,-4.248047
818576671,-0.449463,-0.201172,0.869385,1.075745,0.434875,0.724792,22.705078,24.462891,-4.248047
821563340,-0.444580,-0.204590,0.861816,1.068115,0.350952,0.740051,22.705078,24.462891,-4.248047
824669804,-0.450195,-0.205566,0.866455,1.220703,0.526428,0.869751,22.851563,24.755859,-4.101563
827640884,-0.445557,-0.198730,0.865479,1.396179,0.701904,0.762939,22.851563,24.755859,-4.101563
830612784,-0.448730,-0.199219,0.865723,0.846863,1.052856,0.709534,22.851563,24.755859,-4.101563
834123761,-0.446777,-0.201416,0.875488,1.289368,0.564575,0.846863,22.851563,24.755859,-4.101563
837144071,-0.447998,-0.197998,0.873535,1.396179,0.587463,0.427246,22.851563,24.755859,-4.101563
840092586,-0.446289,-0.201172,0.870117,1.350403,0.831604,1.007080,22.851563,24.755859,-4.101563
843157614,-0.450195,-0.193359,0.871338,0.999451,0.610352,0.785828,23.071289,25.122070,-4.174805
846107360,-0.448486,-0.194092,0.865479,1.686096,0.877380,0.572205,23.071289,25.122070,-4.174805
848604183,-0.447266,-0.195557,0.868408,1.213074,0.755310,0.907898,23.071289,25.122070,-4.174805
851161724,-0.450439,-0.195557,0.867188,1.464844,0.755310,0.717163,23.071289,25.122070,-4.174805
854155367,-0.447510,-0.194580,0.872803,1.121521,0.862122,0.778198,23.071289,25.122070,-4.174805
856655061,-0.447998,-0.196045,0.874023,1.045227,1.068115,0.724792,23.071289,25.122070,-4.174805
859160089,-0.449707,-0.196289,0.868164,1.197815,0.999451,0.602722,23.071289,25.122070,-4.174805
861653219,-0.447510,-0.195068,0.866943,0.968933,0.885010,0.709534,23.291016,25.048828,-4.248047
864207068,-0.451904,-0.201172,0.877686,0.892639,0.892639,0.587463,23.291016,25.048828,-4.248047
867183070,-0.447754,-0.197021,0.871338,0.900269,1.045227,0.656128,23.291016,25.048828,-4.248047
869723380,-0.455811,-0.198730,0.874512,1.152039,1.167297,0.854492,23.291016,25.048828,-4.248047
873267178,-0.453613,-0.200928,0.866943,1.045227,1.289368,0.427246,23.291016,25.048828,-4.248047
876253436,-0.456055,-0.197266,0.865723,1.144409,0.709534,0.556946,23.291016,25.048828,-4.248047
879288926,-0.455322,-0.200684,0.862549,1.029968,1.007080,0.366211,23.291016,25.048828,-4.248047
882198467,-0.457031,-0.200439,0.870361,0.793457,0.823975,0.350952,23.217773,24.975586,-4.174805
884804008,-0.459961,-0.198486,0.862061,1.113892,0.679016,0.358582,23.217773,24.975586,-4.174805
887706574,-0.460938,-0.204346,0.857178,0.885010,0.762939,0.564575,23.217773,24.975586,-4.174805
890212832,-0.458740,-0.200439,0.858887,1.029968,0.953674,0.366211,23.217773,24.975586,-4.174805
892715809,-0.462646,-0.203857,0.864014,0.816345,0.686646,0.389099,23.217773,24.975586,-4.174805
895759914,-0.459229,-0.205322,0.858887,1.152039,0.396729,0.251770,23.217773,24.975586,-4.174805
898300634,-0.455811,-0.208252,0.852051,0.762939,0.442505,0.610352,23.217773,24.975586,-4.174805
901261457,-0.450195,-0.205566,0.858643,1.014709,0.045776,0.473022,23.217773,24.975586,-4.174805
903759510,-0.454346,-0.205566,0.847900,1.335144,0.198364,0.373840,23.217773,24.682617,-3.881836
906262487,-0.449219,-0.203125,0.849365,1.007080,-0.076294,0.221252,23.217773,24.682617,-3.881836
908760130,-0.447266,-0.209961,0.857422,1.220703,-0.068665,0.320435,23.217773,24.682617,-3.881836
911309465,-0.452148,-0.205811,0.846924,1.342773,-0.320435,0.457764,23.217773,24.682617,-3.881836
913811211,-0.444092,-0.204590,0.850098,1.159668,-0.350952,0.427246,23.217773,24.682617,-3.881836
916811829,-0.445801,-0.204590,0.852295,1.213074,-0.289917,0.518799,23.217773,24.682617,-3.881836
919811216,-0.440674,-0.205811,0.856689,1.342773,-0.518799,0.617981,23.217773,24.682617,-3.881836
922400756,-0.442627,-0.204102,0.860352,1.251221,-0.106812,0.541687,23.876953,24.316406,-4.248047
925339425,-0.445313,-0.210693,0.858643,1.419067,-0.488281,0.419617,23.876953,24.316406,-4.248047
928350710,-0.443604,-0.210449,0.860596,1.411438,-0.205994,0.740051,23.876953,24.316406,-4.248047
931379225,-0.444580,-0.208740,0.859863,1.800537,-0.053406,0.564575,23.876953,24.316406,-4.248047
934355638,-0.438965,-0.208252,0.863037,1.548767,-0.221252,0.709534,23.876953,24.316406,-4.248047
936852461,-0.444580,-0.210938,0.868896,1.884460,0.000000,0.465393,23.876953,24.316406,-4.248047
939353796,-0.442383,-0.210693,0.872070,2.471924,0.083923,0.694275,23.876953,24.316406,-4.248047
941852670,-0.443604,-0.207520,0.869873,2.052307,0.038147,0.579834,23.071289,24.829102,-4.467773
944400364,-0.444824,-0.206299,0.871338,2.189636,0.358582,0.671387,23.071289,24.829102,-4.467773
947410828,-0.445557,-0.208008,0.874512,2.258301,0.221252,0.747681,23.071289,24.829102,-4.467773
950496369,-0.444824,-0.206055,0.875244,2.296448,0.389099,0.663757,23.071289,24.829102,-4.467773
953459654,-0.447266,-0.204834,0.872559,2.395630,0.617981,0.816345,23.071289,24.829102,-4.467773
956486938,-0.448486,-0.202637,0.874268,2.372742,0.434875,0.778198,23.071289,24.829102,-4.467773
959449812,-0.449463,-0.201172,0.872070,2.418518,0.724792,0.885010,23.071289,24.829102,-4.467773
962498841,-0.446289,-0.197754,0.866943,2.349854,0.366211,0.503540,23.144531,24.755859,-4.394531
965478125,-0.448975,-0.196533,0.864990,2.395630,0.488281,0.946045,23.144531,24.755859,-4.394531
968518538,-0.449219,-0.202637,0.872070,2.304077,0.701904,0.877380,23.144531,24.755859,-4.394531
971529822,-0.446289,-0.200928,0.872559,2.296448,0.320435,0.930786,23.144531,24.755859,-4.394531
974515261,-0.450439,-0.195801,0.864502,2.143860,0.556946,0.930786,23.144531,24.755859,-4.394531
977520802,-0.445068,-0.199219,0.870117,2.365112,0.640869,1.060486,23.144531,24.755859,-4.394531
980546035,-0.447510,-0.199463,0.874756,2.220154,0.434875,0.839233,23.144531,24.755859,-4.394531
983547883,-0.441895,-0.200439,0.874268,2.189636,0.778198,0.976563,23.217773,24.389648,-4.760742
986997322,-0.445557,-0.199219,0.876221,2.075195,0.717163,1.228333,23.217773,24.389648,-4.760742
989529017,-0.442383,-0.196777,0.871094,1.777649,0.946045,1.190186,23.217773,24.389648,-4.760742
992510763,-0.444092,-0.197998,0.872314,2.021790,0.732422,1.251221,23.217773,24.389648,-4.760742
995547893,-0.446289,-0.195801,0.875977,1.647949,1.106262,1.281738,23.217773,24.389648,-4.760742
998545229,-0.443604,-0.196777,0.876953,1.464844,0.839233,1.213074,23.217773,24.389648,-4.760742
1001044923,-0.439697,-0.197021,0.875977,2.059937,0.831604,1.419067,23.144531,24.755859,-3.662109
1004069746,-0.441895,-0.195068,0.875244,1.457214,1.426697,1.327515,23.144531,24.755859,-3.662109
1006620723,-0.442627,-0.193604,0.868164,1.693726,1.152039,1.251221,23.144531,24.755859,-3.662109
1010084110,-0.441650,-0.198730,0.873535,1.602173,1.380920,1.525879,23.144531,24.755859,-3.662109
1013090472,-0.441650,-0.193848,0.876221,1.441956,1.281738,1.190186,23.144531,25.195313,-3.515625
1016086167,-0.440674,-0.199463,0.869873,1.335144,1.586914,1.144409,23.144531,25.195313,-3.515625
1019082272,-0.442383,-0.194580,0.864990,1.564026,1.342773,1.007080,23.144531,25.195313,-3.515625
1022096838,-0.441895,-0.195557,0.878174,1.342773,1.686096,0.984192,22.851563,24.902344,-4.101563
1025117969,-0.447266,-0.198486,0.873779,1.495361,1.701355,0.679016,22.851563,24.902344,-4.101563
1027611920,-0.446045,-0.197998,0.870850,1.564026,1.602173,0.640869,22.851563,24.902344,-4.101563
1030115717,-0.450195,-0.199219,0.870117,1.502991,1.678467,0.770569,22.851563,24.902344,-4.101563
1032612129,-0.446045,-0.192383,0.862305,1.419067,1.678467,0.541687,23.217773,24.975586,-4.321289
1035111823,-0.449951,-0.195557,0.866699,1.472473,1.434326,0.534058,23.217773,24.975586,-4.321289
1037609466,-0.446289,-0.200195,0.869873,1.548767,1.510620,0.663757,23.217773,24.975586,-4.321289
1040148956,-0.447998,-0.200439,0.863770,1.686096,1.525879,0.396729,23.217773,24.975586,-4.321289
1043204958,-0.450684,-0.198975,0.874756,1.281738,1.632690,0.465393,22.998047,24.902344,-4.248047
1046138294,-0.451416,-0.202148,0.857910,1.586914,1.724243,0.579834,22.998047,24.902344,-4.248047
1048691732,-0.455811,-0.201172,0.859619,1.571655,1.556396,0.404358,22.998047,24.902344,-4.248047
1051724350,-0.455078,-0.202881,0.862061,1.335144,1.625061,0.656128,23.510742,24.682617,-4.760742
1054692147,-0.455566,-0.202393,0.862061,1.342773,1.449585,0.495911,23.510742,24.682617,-4.760742
1057751842,-0.450684,-0.202637,0.865234,1.106262,1.335144,0.740051,23.510742,24.682617,-4.760742
1060691742,-0.457520,-0.198975,0.860596,1.106262,1.220703,0.648499,23.510742,24.682617,-4.760742
1063758411,-0.451416,-0.199707,0.860107,1.014709,1.235962,0.808716,22.705078,25.048828,-4.541016
1066779131,-0.453857,-0.203369,0.856445,1.045227,1.037598,0.656128,22.705078,25.048828,-4.541016
1069732159,-0.457764,-0.205566,0.857422,1.129150,0.907898,0.885010,22.705078,25.048828,-4.541016
1072812367,-0.455566,-0.202637,0.857666,1.197815,0.595093,0.854492,22.924805,24.829102,-4.467773
1075776882,-0.455078,-0.203125,0.855957,1.159668,0.617981,0.648499,22.924805,24.829102,-4.467773
1078759859,-0.456055,-0.205811,0.862305,1.251221,0.694275,0.549316,22.924805,24.829102,-4.467773
1081261194,-0.454834,-0.205322,0.866943,1.136780,0.762939,0.511169,23.217773,25.122070,-4.174805
1083758017,-0.449707,-0.208008,0.862793,1.396179,0.587463,0.549316,23.217773,25.122070,-4.174805
1086288070,-0.452393,-0.203613,0.858154,1.319885,0.366211,0.457764,23.217773,25.122070,-4.174805
1089259560,-0.449707,-0.203613,0.861572,1.358032,0.434875,0.450134,23.217773,25.122070,-4.174805
1091757613,-0.450195,-0.201660,0.861084,1.121521,0.740051,0.709534,22.998047,24.316406,-4.248047
1094329513,-0.453125,-0.206787,0.870361,1.388550,0.480652,0.663757,22.998047,24.316406,-4.248047
1097332182,-0.445068,-0.206055,0.867920,1.228333,0.465393,0.358582,22.998047,24.316406,-4.248047
1100354954,-0.442871,-0.207764,0.866699,1.396179,0.595093,0.610352,22.998047,24.316406,-4.248047
1103432700,-0.446533,-0.205811,0.868896,1.472473,0.602722,0.488281,22.998047,24.316406,-4.248047
1106409933,-0.446777,-0.205566,0.871582,1.541138,0.907898,0.480652,22.998047,24.316406,-4.248047
1109351474,-0.447510,-0.205811,0.875000,1.449585,0.762939,0.709534,22.998047,24.316406,-4.248047
1112317630,-0.449951,-0.203613,0.869629,1.327515,0.686646,0.556946,22.924805,24.536133,-4.321289
1115365427,-0.449463,-0.200928,0.865967,1.464844,1.045227,0.564575,22.924805,24.536133,-4.321289
1117866353,-0.448975,-0.204834,0.861328,1.411438,1.037598,0.411987,22.924805,24.536133,-4.321289
1120953945,-0.446045,-0.204590,0.865234,1.152039,0.755310,0.350952,22.924805,24.536133,-4.321289
1123908204,-0.451172,-0.202148,0.868652,1.785278,1.068115,0.556946,22.924805,24.536133,-4.321289
1126894873,-0.451172,-0.202637,0.867188,1.487732,0.938416,0.633240,22.924805,24.536133,-4.321289
1129959491,-0.454102,-0.203613,0.866211,1.533508,0.961304,0.473022,22.924805,24.536133,-4.321289
1132935903,-0.454102,-0.203857,0.860840,1.678467,0.953674,0.465393,22.631836,24.829102,-4.028320
1136096111,-0.451904,-0.205078,0.858887,1.564026,0.839233,0.389099,22.631836,24.829102,-4.028320
1138942472,-0.455566,-0.198730,0.863525,1.724243,0.923157,0.328064,22.631836,24.829102,-4.028320
1141938167,-0.454834,-0.199951,0.863037,1.724243,1.045227,0.488281,22.631836,24.829102,-4.028320
1145029042,-0.456299,-0.200928,0.854248,1.701355,1.045227,0.572205,22.631836,24.829102,-4.028320
1147941044,-0.455322,-0.201660,0.861084,1.342773,0.549316,0.244141,22.631836,24.829102,-4.028320
1150906380,-0.456299,-0.197510,0.865479,1.838684,0.694275,0.511169,23.291016,24.755859,-3.808594
1153572638,-0.456055,-0.201660,0.863770,1.525879,0.640869,0.663757,23.291016,24.755859,-3.808594
1156438692,-0.458252,-0.201172,0.863525,1.541138,0.671387,0.549316,23.291016,24.755859,-3.808594
1158936335,-0.458252,-0.202148,0.867188,1.434326,0.518799,0.572205,23.291016,24.755859,-3.808594
1161489363,-0.454102,-0.199707,0.862549,1.716614,0.503540,0.610352,23.291016,24.755859,-3.808594
1164489570,-0.450684,-0.199219,0.861084,1.457214,0.633240,0.679016,23.291016,24.755859,-3.808594
1166950701,-0.458252,-0.200195,0.862549,1.495361,0.427246,0.427246,23.291016,24.755859,-3.808594
1169506600,-0.450684,-0.196777,0.870361,1.571655,0.442505,0.617981,23.291016,24.755859,-3.808594
1172006705,-0.454590,-0.198975,0.860107,1.449585,0.358582,0.564575,23.071289,25.122070,-4.174805
1174464553,-0.452637,-0.195801,0.862061,1.266479,0.305176,0.503540,23.071289,25.122070,-4.174805
1177019632,-0.448486,-0.198242,0.862061,1.495361,0.404358,0.617981,23.071289,25.122070,-4.174805
1180040763,-0.451904,-0.198975,0.873779,1.289368,0.373840,0.404358,23.071289,25.122070,-4.174805
1183076663,-0.448975,-0.196533,0.865967,1.564026,0.205994,0.602722,23.071289,25.122070,-4.174805
1186030921,-0.451660,-0.196533,0.866699,1.129150,0.411987,0.495911,23.071289,25.122070,-4.174805
1189084052,-0.447266,-0.197754,0.869629,1.579285,0.465393,0.648499,23.071289,25.122070,-4.174805
1192037490,-0.441406,-0.203613,0.865967,1.373291,0.434875,0.511169,23.291016,24.609375,-3.955078
1194538826,-0.444092,-0.203613,0.864014,1.510620,0.434875,0.488281,23.291016,24.609375,-3.955078
1197092264,-0.445801,-0.199463,0.875732,1.251221,0.602722,0.694275,23.291016,24.609375,-3.955078
1200040369,-0.445068,-0.205566,0.872314,1.380920,0.617981,0.656128,23.291016,24.609375,-3.955078
1202626627,-0.442139,-0.204346,0.872070,1.396179,1.045227,0.648499,23.291016,24.609375,-3.955078
1205578014,-0.443359,-0.204102,0.867676,1.152039,0.679016,0.762939,23.291016,24.609375,-3.955078
1208124068,-0.446533,-0.203857,0.869629,1.701355,0.747681,0.534058,23.291016,24.609375,-3.955078
1211133711,-0.450439,-0.205078,0.870850,1.243591,0.976563,0.701904,23.583984,24.462891,-4.687500
1214137611,-0.447510,-0.199463,0.860352,1.365662,1.037598,0.663757,23.583984,24.462891,-4.687500
1217642024,-0.454346,-0.198975,0.867676,1.296997,0.961304,0.846863,23.583984,24.462891,-4.687500
1220634847,-0.448975,-0.193848,0.863037,1.083374,1.075745,0.396729,23.583984,24.462891,-4.687500
1223635875,-0.455811,-0.199707,0.860352,1.129150,1.029968,0.839233,23.583984,24.462891,-4.687500
1226168800,-0.453613,-0.195313,0.857910,1.319885,1.037598,0.534058,23.583984,24.462891,-4.687500
1229132905,-0.457764,-0.195801,0.860840,1.106262,1.213074,0.541687,23.583984,24.462891,-4.687500
1232654139,-0.456787,-0.199463,0.866943,1.091003,0.892639,0.526428,22.924805,25.268555,-3.588867
1235636295,-0.457764,-0.199707,0.863770,1.235962,0.656128,0.473022,22.924805,25.268555,-3.588867
1238188503,-0.460938,-0.201172,0.852539,1.029968,0.762939,0.297546,22.924805,25.268555,-3.588867
1241191172,-0.455322,-0.195557,0.855957,1.037598,0.724792,0.297546,22.924805,25.268555,-3.588867
1243685123,-0.453613,-0.198242,0.853027,0.816345,0.396729,0.419617,22.924805,25.268555,-3.588867
1246759587,-0.457764,-0.200684,0.852783,0.938416,0.381470,0.152588,22.924805,25.268555,-3.588867
1249696615,-0.456299,-0.195801,0.854980,0.694275,0.305176,0.289917,22.924805,25.268555,-3.588867
1252704207,-0.452637,-0.200195,0.856445,0.938416,0.061035,0.106812,23.730469,25.048828,-4.394531
1255749543,-0.452393,-0.195068,0.851074,0.640869,-0.053406,0.419617,23.730469,25.048828,-4.394531
1258779289,-0.450928,-0.200439,0.858398,0.617981,-0.061035,0.289917,23.730469,25.048828,-4.394531
1261784830,-0.451416,-0.197510,0.861572,0.671387,0.022888,0.167847,23.730469,25.048828,-4.394531
1264788730,-0.446289,-0.204834,0.855225,0.511169,-0.450134,0.282288,23.730469,25.048828,-4.394531
1267763501,-0.448486,-0.206055,0.859863,0.648499,0.068665,0.343323,23.730469,25.048828,-4.394531
1270762888,-0.446533,-0.207520,0.864258,0.419617,-0.244141,0.213623,23.583984,23.876953,-4.394531
1273774993,-0.444824,-0.212158,0.864258,0.656128,-0.259399,0.289917,23.583984,23.876953,-4.394531
1276839611,-0.449463,-0.212158,0.864014,0.839233,-0.312805,0.289917,23.583984,23.876953,-4.394531
1279884127,-0.446289,-0.214355,0.863525,1.106262,0.038147,0.701904,23.583984,23.876953,-4.394531
1283043514,-0.441895,-0.214600,0.866943,1.167297,-0.259399,0.366211,23.583984,23.876953,-4.394531
1285894388,-0.449707,-0.218506,0.863525,1.220703,0.099182,0.396729,23.583984,23.876953,-4.394531
1288815826,-0.444824,-0.219727,0.873779,1.480103,-0.106812,0.411987,23.583984,23.876953,-4.394531
1292320650,-0.445557,-0.222412,0.867676,1.907349,-0.099182,0.503540,23.364258,24.682617,-4.321289
1295317985,-0.445801,-0.221191,0.869141,1.953125,0.366211,0.068665,23.364258,24.682617,-4.321289
1298315321,-0.445068,-0.218750,0.871826,2.197266,0.381470,0.633240,23.364258,24.682617,-4.321289
1300816657,-0.446045,-0.220215,0.872803,2.365112,0.366211,0.396729,23.364258,24.682617,-4.321289
1303339736,-0.443115,-0.214844,0.875977,2.273560,0.312805,0.671387,23.364258,24.682617,-4.321289
1306410507,-0.447510,-0.214600,0.867676,2.510071,0.205994,0.511169,23.364258,24.682617,-4.321289
1309459946,-0.448975,-0.215088,0.868652,2.494812,0.267029,0.808716,23.364258,24.682617,-4.321289
1312424051,-0.446289,-0.216553,0.862793,2.326965,0.556946,0.686646,23.291016,24.462891,-3.808594
1315407028,-0.443848,-0.209229,0.865723,2.624512,0.434875,0.854492,23.291016,24.462891,-3.808594
1318433902,-0.445801,-0.211670,0.863037,2.960205,0.274658,0.801086,23.291016,24.462891,-3.808594
1321912879,-0.443604,-0.212158,0.858154,2.441406,0.358582,0.915527,23.291016,24.462891,-3.808594
1324966010,-0.444580,-0.211914,0.863037,2.777100,0.518799,0.923157,23.291016,24.462891,-3.808594
1327990422,-0.444824,-0.208252,0.858643,2.693176,0.396729,1.220703,23.291016,24.462891,-3.808594
1330982015,-0.444092,-0.204590,0.862793,2.906799,0.305176,1.197815,23.144531,25.341797,-4.101563
1333907145,-0.447266,-0.209473,0.858643,2.479553,0.465393,1.289368,23.144531,25.341797,-4.101563
1336413404,-0.449463,-0.200195,0.859375,3.067017,0.396729,1.403809,23.144531,25.341797,-4.101563
1338976278,-0.447510,-0.205566,0.862305,2.540588,0.312805,1.228333,23.144531,25.341797,-4.101563
1341972793,-0.446777,-0.200439,0.859619,2.624512,0.511169,1.319885,23.437500,25.048828,-4.248047
1345000898,-0.446533,-0.202637,0.861572,3.112793,0.480652,1.564026,23.437500,25.048828,-4.248047
1347950234,-0.446045,-0.205322,0.860107,2.632141,0.236511,1.220703,23.437500,25.048828,-4.248047
1350506954,-0.452148,-0.201172,0.869873,2.647400,0.480652,1.304626,23.876953,24.609375,-4.394531
1353513315,-0.446045,-0.197021,0.867188,2.876282,0.160217,1.380920,23.876953,24.609375,-4.394531
1356965215,-0.449707,-0.197510,0.869873,2.601624,0.572205,1.243591,23.876953,24.609375,-4.394531
1360062244,-0.445313,-0.196045,0.864990,2.059937,0.396729,1.380920,23.437500,25.048828,-4.687500
1363565836,-0.446533,-0.196533,0.860596,2.296448,0.259399,1.296997,23.437500,25.048828,-4.687500
1366563993,-0.446777,-0.194092,0.864502,2.159119,0.366211,1.213074,23.437500,25.048828,-4.687500
1369571175,-0.448730,-0.194336,0.863037,2.418518,0.282288,1.129150,23.657227,24.829102,-4.614258
1372595177,-0.448730,-0.197998,0.864014,2.182007,0.259399,1.251221,23.657227,24.829102,-4.614258
1375585949,-0.448486,-0.195068,0.868652,2.334595,0.480652,1.045227,23.657227,24.829102,-4.614258
1378552925,-0.447998,-0.197998,0.872070,2.288818,0.511169,1.029968,23.657227,24.829102,-4.614258
1381045645,-0.445557,-0.196777,0.861816,2.006531,0.213623,1.068115,23.730469,24.755859,-4.541016
1384100827,-0.447021,-0.195801,0.868652,2.105713,0.663757,1.136780,23.730469,24.755859,-4.541016
1387206471,-0.450439,-0.197266,0.864746,1.976013,0.274658,1.098633,23.730469,24.755859,-4.541016
1390140627,-0.450928,-0.196289,0.874023,2.021790,0.312805,0.953674,22.412109,24.609375,-4.248047
1393183091,-0.448975,-0.203857,0.871826,1.747131,0.595093,0.808716,22.412109,24.609375,-4.248047
1396613658,-0.449951,-0.206543,0.863281,2.052307,0.579834,1.167297,22.412109,24.609375,-4.248047
1399635199,-0.448730,-0.198975,0.865967,1.846313,0.427246,0.854492,23.144531,24.462891,-4.394531
1402618176,-0.448975,-0.201172,0.870605,1.914978,0.526428,1.052856,23.144531,24.462891,-4.394531
1405172024,-0.447510,-0.199707,0.866699,1.922607,0.381470,0.854492,23.144531,24.462891,-4.394531
1408121770,-0.448486,-0.207520,0.864502,1.777649,0.335693,1.068115,23.144531,24.462891,-4.394531
1411135106,-0.449463,-0.206543,0.860352,1.838684,0.572205,0.572205,23.144531,24.462891,-4.394531
1414144750,-0.446777,-0.205566,0.872314,1.838684,0.297546,0.823975,23.144531,24.462891,-4.394531
1417141675,-0.447021,-0.207031,0.868896,2.197266,0.228882,0.785828,23.144531,24.462891,-4.394531
1420134498,-0.448486,-0.208496,0.868408,1.998901,0.442505,0.930786,22.778320,24.975586,-4.467773
1422690398,-0.447266,-0.204102,0.871582,1.937866,0.320435,0.717163,22.778320,24.975586,-4.467773
1425727118,-0.451660,-0.201172,0.871826,2.098083,0.366211,0.862122,22.778320,24.975586,-4.467773
1428738813,-0.447266,-0.205322,0.864990,2.006531,0.480652,0.709534,22.778320,24.975586,-4.467773
1431785379,-0.449463,-0.206787,0.874023,1.983643,0.343323,0.984192,22.778320,24.975586,-4.467773
1434730613,-0.447998,-0.206787,0.866455,2.525330,0.366211,0.740051,22.778320,24.975586,-4.467773
1437240563,-0.445801,-0.205322,0.868896,1.884460,0.656128,0.823975,22.778320,24.975586,-4.467773
1439775130,-0.447021,-0.204346,0.874268,2.136230,0.274658,0.656128,23.657227,24.536133,-3.881836
1442689183,-0.448242,-0.206543,0.868896,2.044678,0.457764,0.976563,23.657227,24.536133,-3.881836
1445783340,-0.447510,-0.204346,0.874023,1.983643,0.770569,0.846863,23.657227,24.536133,-3.881836
1448789291,-0.447510,-0.201660,0.872070,1.953125,0.556946,0.831604,23.657227,24.536133,-3.881836
1452266217,-0.445801,-0.194580,0.877930,2.204895,0.610352,0.831604,23.657227,24.536133,-3.881836
1455249194,-0.450439,-0.197021,0.865967,1.861572,0.808716,0.846863,23.657227,24.536133,-3.881836
1458294529,-0.453125,-0.195801,0.867920,1.831055,0.709534,0.801086,23.657227,24.536133,-3.881836
1461816173,-0.449707,-0.197998,0.871826,1.976013,1.159668,0.877380,23.437500,24.462891,-4.687500
1464792996,-0.448242,-0.202393,0.876221,2.029419,0.534058,0.602722,23.437500,24.462891,-4.687500
1467760794,-0.452637,-0.195801,0.865234,1.602173,0.671387,0.663757,23.437500,24.462891,-4.687500
1470297411,-0.452637,-0.202637,0.872070,1.380920,0.488281,0.503540,23.437500,24.462891,-4.687500
1473337824,-0.457275,-0.202148,0.866455,1.708984,0.785828,0.534058,23.437500,24.462891,-4.687500
1476457006,-0.454346,-0.201904,0.859131,1.823425,0.862122,0.503540,23.437500,24.462891,-4.687500
1479332085,-0.454834,-0.204346,0.861084,1.678467,0.823975,0.488281,23.730469,25.048828,-4.394531
1482349934,-0.455566,-0.199463,0.859619,1.808167,0.717163,0.892639,23.730469,25.048828,-4.394531
1485336193,-0.454834,-0.203857,0.854980,2.067566,0.335693,0.427246,23.730469,25.048828,-4.394531
1488334349,-0.453857,-0.203857,0.864990,1.518250,0.434875,0.663757,23.730469,25.048828,-4.394531
1491337839,-0.455566,-0.205566,0.861328,1.792908,0.396729,0.686646,23.730469,25.048828,-4.394531
1494335174,-0.453857,-0.203369,0.856689,2.037048,0.419617,0.724792,23.730469,25.048828,-4.394531
1496925946,-0.456787,-0.206787,0.859375,1.922607,0.358582,0.747681,23.730469,25.048828,-4.394531
1500390974,-0.455811,-0.206543,0.861084,1.869202,-0.068665,0.556946,23.583984,24.169922,-4.833984
1503938054,-0.452148,-0.207764,0.855469,1.838684,0.167847,0.869751,23.583984,24.169922,-4.833984
1506889031,-0.456055,-0.206055,0.864014,1.708984,0.045776,0.747681,23.583984,24.169922,-4.833984
1509438366,-0.456299,-0.209229,0.859863,2.052307,-0.068665,0.923157,23.583984,24.169922,-4.833984
1512391805,-0.452148,-0.204346,0.856201,2.006531,-0.167847,0.999451,23.583984,24.169922,-4.833984
1515447397,-0.453369,-0.210938,0.863770,2.197266,-0.244141,1.014709,23.583984,24.169922,-4.833984
1518482066,-0.456055,-0.207031,0.861816,2.449036,-0.251770,0.793457,23.583984,24.169922,-4.833984
1521399402,-0.450928,-0.208740,0.860596,2.128601,-0.022888,0.778198,23.364258,25.122070,-4.321289
1524451712,-0.450439,-0.207031,0.864990,2.349854,-0.366211,0.846863,23.364258,25.122070,-4.321289
1527006381,-0.448486,-0.204590,0.865967,2.388000,-0.259399,0.862122,23.364258,25.122070,-4.321289
1530546076,-0.448486,-0.206299,0.868408,2.571106,0.022888,1.007080,23.364258,25.122070,-4.321289
1533531514,-0.446777,-0.203125,0.866943,2.563477,-0.312805,0.892639,23.364258,25.122070,-4.321289
1536462388,-0.443604,-0.204834,0.870361,2.174377,0.038147,1.045227,23.364258,25.122070,-4.321289
1539477365,-0.446533,-0.206055,0.868164,2.693176,-0.007629,0.961304,23.071289,24.389648,-4.321289
1541980752,-0.448730,-0.200684,0.872559,2.662659,-0.091553,1.007080,23.071289,24.389648,-4.321289
1545015421,-0.449463,-0.203125,0.868164,2.716064,0.015259,0.839233,23.071289,24.389648,-4.321289
1548064039,-0.449219,-0.205811,0.869385,2.738953,-0.068665,0.709534,23.071289,24.389648,-4.321289
1551015016,-0.445557,-0.201172,0.876221,2.914429,0.091553,0.984192,23.071289,24.389648,-4.321289
1554026300,-0.444580,-0.201172,0.865723,2.906799,0.030518,0.686646,23.071289,24.389648,-4.321289
1556604354,-0.449951,-0.202393,0.862305,2.746582,0.320435,0.999451,23.071289,24.389648,-4.321289
1559684972,-0.445313,-0.200439,0.868164,2.830505,-0.061035,0.831604,22.924805,24.096680,-4.174805
1562575641,-0.448730,-0.200684,0.868408,2.876282,0.297546,1.083374,22.924805,24.096680,-4.174805
1565560258,-0.447266,-0.202148,0.861084,3.021240,0.274658,0.740051,22.924805,24.096680,-4.174805
1568053799,-0.451660,-0.198486,0.865234,2.685547,0.213623,0.907898,22.924805,24.096680,-4.174805
1570590827,-0.447998,-0.194336,0.864990,2.998352,0.213623,0.991821,22.924805,24.096680,-4.174805
1573640265,-0.447510,-0.193359,0.861084,2.906799,0.015259,0.900269,22.924805,24.096680,-4.174805
1576660985,-0.446045,-0.187256,0.859863,2.525330,0.022888,0.831604,22.924805,24.096680,-4.174805
1580132988,-0.450928,-0.190674,0.866455,2.464294,0.259399,0.885010,23.510742,24.829102,-4.174805
1583213196,-0.448486,-0.193115,0.856934,2.372742,0.030518,0.801086,23.510742,24.829102,-4.174805
1586166224,-0.453369,-0.188232,0.863037,2.357483,-0.045776,0.946045,23.510742,24.829102,-4.174805
1589170534,-0.448486,-0.193604,0.863770,1.968384,-0.091553,0.885010,23.510742,24.829102,-4.174805
1592147357,-0.451904,-0.190186,0.864258,2.182007,-0.068665,0.640869,23.510742,24.829102,-4.174805
1595319873,-0.448730,-0.194580,0.862305,1.892090,0.007629,0.900269,23.510742,24.829102,-4.174805
1598215054,-0.448242,-0.195557,0.859131,2.006531,-0.526428,0.770569,23.510742,24.829102,-4.174805
1601202544,-0.447510,-0.193604,0.858154,1.686096,-0.480652,0.770569,23.510742,23.803711,-4.467773
1604172393,-0.447510,-0.196777,0.864014,1.754761,-0.312805,0.572205,23.510742,23.803711,-4.467773
1607175062,-0.448975,-0.199707,0.862549,1.693726,-0.648499,0.953674,23.510742,23.803711,-4.467773
1609672295,-0.447754,-0.197266,0.864502,2.075195,-0.030518,0.831604,23.510742,23.803711,-4.467773
1612256092,-0.445068,-0.201904,0.866943,1.770020,-0.488281,0.694275,23.510742,23.803711,-4.467773
1615220607,-0.451660,-0.199219,0.867432,1.968384,-0.450134,1.083374,23.510742,23.803711,-4.467773
1618729123,-0.449219,-0.200928,0.870117,1.525879,-0.427246,0.831604,23.510742,23.803711,-4.467773
1621749843,-0.447266,-0.204102,0.864990,1.731873,-0.183105,0.892639,23.730469,24.609375,-3.662109
1624224101,-0.444092,-0.199219,0.874268,1.892090,-0.404358,1.029968,23.730469,24.609375,-3.662109
1627271078,-0.442139,-0.204590,0.868164,2.098083,-0.061035,0.968933,23.730469,24.609375,-3.662109
1630236824,-0.438477,-0.205078,0.870361,1.708984,-0.480652,0.877380,23.730469,24.609375,-3.662109
1633246468,-0.437012,-0.206299,0.872803,1.647949,-0.267029,1.060486,23.730469,24.609375,-3.662109
1636320111,-0.441162,-0.204102,0.876465,1.968384,-0.190735,1.022339,23.730469,24.609375,-3.662109
1639286268,-0.441162,-0.203125,0.877930,1.754761,-0.030518,1.281738,23.217773,24.536133,-4.321289
1642334065,-0.436768,-0.207031,0.875977,2.113342,0.068665,1.014709,23.217773,24.536133,-4.321289
1645318683,-0.438232,-0.199463,0.875732,2.159119,0.015259,1.319885,23.217773,24.536133,-4.321289
1648288121,-0.438477,-0.201660,0.873779,1.884460,0.335693,1.022339,23.217773,24.536133,-4.321289
1650789046,-0.435547,-0.199463,0.873779,1.922607,0.045776,0.976563,23.217773,24.536133,-4.321289
1653301459,-0.439453,-0.199951,0.875244,2.021790,0.251770,0.991821,23.217773,24.536133,-4.321289
1655797461,-0.437256,-0.203857,0.873047,1.838684,0.236511,0.946045,23.217773,24.536133,-4.321289
1658297565,-0.440918,-0.199707,0.867188,2.014160,0.480652,0.877380,23.657227,24.975586,-4.467773
1660807926,-0.444336,-0.206299,0.868408,1.876831,0.511169,0.816345,23.657227,24.975586,-4.467773
1663355210,-0.439941,-0.206543,0.877930,2.136230,0.534058,0.877380,23.657227,24.975586,-4.467773
1666406700,-0.445068,-0.205566,0.866699,2.021790,0.579834,0.663757,23.657227,24.975586,-4.467773
1669358908,-0.446045,-0.206543,0.872559,2.166748,0.465393,0.907898,23.437500,24.462891,-4.687500
1672344756,-0.442627,-0.205078,0.864990,2.059937,0.602722,0.663757,23.437500,24.462891,-4.687500
1675335118,-0.442871,-0.208740,0.856689,2.441406,0.228882,1.007080,23.437500,24.462891,-4.687500
1677832761,-0.447266,-0.210693,0.866455,2.761841,0.434875,0.801086,23.510742,24.975586,-4.321289
1680406301,-0.448486,-0.211182,0.866943,2.288818,0.480652,0.869751,23.510742,24.975586,-4.321289
1683388047,-0.447754,-0.212646,0.866211,2.906799,0.457764,0.923157,23.510742,24.975586,-4.321289
1685883229,-0.447754,-0.210205,0.867920,2.525330,0.556946,1.182556,23.510742,24.975586,-4.321289
1688399334,-0.445068,-0.211182,0.867676,2.883911,0.099182,1.037598,23.510742,24.829102,-3.881836
1690890413,-0.442139,-0.213135,0.869385,2.662659,0.595093,1.281738,23.510742,24.829102,-3.881836
1693403645,-0.441895,-0.213867,0.863037,2.792358,-0.038147,1.327515,23.510742,24.829102,-3.881836
1696434212,-0.451416,-0.213623,0.857910,2.838135,0.251770,1.235962,23.510742,24.829102,-3.881836
1699519753,-0.445557,-0.209717,0.868652,2.479553,0.259399,1.388550,23.291016,25.195313,-4.101563
1702438730,-0.444092,-0.206543,0.870605,2.876282,0.137329,1.472473,23.291016,25.195313,-4.101563
1705437296,-0.446777,-0.205078,0.872070,2.731323,0.198364,1.502991,23.291016,25.195313,-4.101563
1707934119,-0.448975,-0.204834,0.867432,3.120422,0.282288,1.647949,23.510742,23.950195,-4.028320
1710931865,-0.445313,-0.204834,0.858643,2.616882,0.259399,1.365662,23.510742,23.950195,-4.028320
1714476893,-0.447510,-0.200684,0.869141,2.845764,0.366211,1.571655,23.510742,23.950195,-4.028320
1717509922,-0.446289,-0.201172,0.865967,2.990723,0.442505,1.670837,23.510742,23.950195,-4.028320
1720495360,-0.449463,-0.195313,0.866455,2.769470,0.205994,1.396179,23.364258,24.975586,-3.588867
1723519773,-0.447998,-0.197998,0.865479,2.609253,0.442505,1.396179,23.364258,24.975586,-3.588867
1726492083,-0.446045,-0.197998,0.868164,3.044128,0.289917,1.464844,23.364258,24.975586,-3.588867
1729503367,-0.451172,-0.192383,0.875000,2.845764,0.373840,1.380920,23.510742,23.950195,-4.467773
1732560190,-0.450195,-0.191895,0.873779,2.540588,0.488281,1.426697,23.510742,23.950195,-4.467773
1735487782,-0.448730,-0.190186,0.863281,2.792358,0.267029,1.159668,23.510742,23.950195,-4.467773
1738032605,-0.447754,-0.190430,0.865967,2.616882,0.465393,1.182556,23.583984,24.316406,-4.394531
1740537223,-0.451416,-0.195313,0.866211,2.014160,0.343323,1.190186,23.583984,24.316406,-4.394531
1743044301,-0.446533,-0.190430,0.868896,2.388000,0.404358,1.190186,23.583984,24.316406,-4.394531
1746037124,-0.448242,-0.193115,0.868896,2.197266,0.328064,1.373291,23.583984,24.316406,-4.394531
1749104204,-0.451172,-0.197754,0.867432,1.991272,0.549316,0.984192,23.364258,24.829102,-4.614258
1752060514,-0.446533,-0.197021,0.859131,1.976013,0.167847,1.358032,23.364258,24.829102,-4.614258
1754552824,-0.452881,-0.198730,0.857422,2.418518,0.259399,1.106262,23.364258,24.829102,-4.614258
1757069339,-0.452393,-0.200439,0.859863,2.189636,0.137329,1.205444,23.364258,24.829102,-4.614258
1760059700,-0.450439,-0.201660,0.861328,2.204895,0.167847,1.022339,23.364258,24.829102,-4.614258
1762602882,-0.452393,-0.200195,0.858643,2.334595,0.152588,1.060486,23.364258,24.829102,-4.614258
1765663807,-0.448242,-0.202637,0.861572,2.197266,0.091553,0.694275,23.364258,24.829102,-4.614258
1768660733,-0.450195,-0.201172,0.866455,2.510071,0.183105,1.022339,23.071289,25.122070,-3.735352
1771685966,-0.450928,-0.208008,0.869873,2.082825,-0.022888,0.770569,23.071289,25.122070,-3.735352
1774698481,-0.449463,-0.203857,0.861084,2.845764,-0.007629,1.068115,23.071289,25.122070,-3.735352
1777656843,-0.452393,-0.204102,0.866943,2.502441,-0.259399,0.984192,23.071289,25.122070,-3.735352
1780667717,-0.452881,-0.209229,0.868652,2.799988,-0.061035,1.182556,23.071289,25.122070,-3.735352
1783676950,-0.449951,-0.203125,0.862305,2.555847,-0.228882,0.946045,23.071289,25.122070,-3.735352
1786647209,-0.446045,-0.207275,0.869873,3.036499,-0.312805,1.007080,23.071289,25.122070,-3.735352
1789683519,-0.447998,-0.206299,0.864990,2.754211,-0.213623,1.197815,23.071289,24.536133,-4.614258
1792682086,-0.443359,-0.202393,0.864746,2.952576,-0.030518,1.304626,23.071289,24.536133,-4.614258
1795745473,-0.449219,-0.202881,0.864014,2.960205,-0.236511,1.190186,23.071289,24.536133,-4.614258
1799161681,-0.447021,-0.199219,0.868652,2.883911,-0.083923,1.228333,23.071289,24.536133,-4.614258
1801752862,-0.447021,-0.199951,0.867920,2.937317,-0.007629,1.174927,23.071289,24.536133,-4.614258
1804712044,-0.445313,-0.197998,0.867676,2.578735,0.099182,1.129150,23.071289,24.536133,-4.614258
1807796765,-0.445313,-0.196045,0.865479,2.738953,0.083923,1.289368,23.071289,24.389648,-4.321289
1811250716,-0.443848,-0.195068,0.867188,2.586365,-0.129700,1.266479,23.071289,24.389648,-4.321289
1814234514,-0.444336,-0.195068,0.867920,2.799988,-0.160217,1.136780,23.071289,24.389648,-4.321289
1816737080,-0.442627,-0.192139,0.865479,2.868652,0.213623,1.014709,23.071289,24.389648,-4.321289
1819233492,-0.443604,-0.199219,0.873779,2.494812,-0.061035,1.167297,23.071289,24.389648,-4.321289
1821825494,-0.445313,-0.195557,0.869141,2.510071,-0.061035,1.327515,23.071289,24.389648,-4.321289
1824823240,-0.445557,-0.194580,0.867920,2.395630,0.251770,1.014709,23.071289,24.389648,-4.321289
1827786935,-0.445313,-0.190674,0.867432,2.464294,0.144958,1.174927,23.510742,24.975586,-4.321289
1830867143,-0.445313,-0.189209,0.873535,2.616882,0.205994,1.243591,23.510742,24.975586,-4.321289
1833820991,-0.444336,-0.194824,0.866211,2.433777,0.152588,1.052856,23.510742,24.975586,-4.321289
1836833507,-0.451172,-0.193115,0.868408,1.884460,0.335693,0.961304,23.510742,24.975586,-4.321289
1840341612,-0.443848,-0.196533,0.867676,2.357483,0.289917,1.106262,23.510742,24.975586,-4.321289
1843282332,-0.444580,-0.193848,0.869873,2.151489,0.198364,1.274109,23.510742,24.975586,-4.321289
1845888283,-0.448730,-0.197266,0.870605,1.678467,0.099182,1.075745,23.510742,24.975586,-4.321289
1848826952,-0.448486,-0.199707,0.862305,1.976013,0.328064,0.923157,22.631836,24.243164,-4.174805
1851821827,-0.447510,-0.200195,0.869873,2.136230,0.144958,0.831604,22.631836,24.243164,-4.174805
1854345316,-0.448730,-0.202881,0.865723,2.182007,0.320435,1.060486,22.631836,24.243164,-4.174805
1856835574,-0.445313,-0.204346,0.858887,2.182007,-0.114441,0.915527,22.631836,24.243164,-4.174805
1859336089,-0.444336,-0.206299,0.867676,2.418518,0.190735,0.885010,22.631836,24.243164,-4.174805
1861833322,-0.445068,-0.203857,0.873047,2.342224,-0.030518,1.075745,22.631836,24.243164,-4.174805
1864858555,-0.447021,-0.203613,0.868164,2.555847,0.099182,0.946045,22.631836,24.243164,-4.174805
1867885019,-0.450195,-0.200439,0.866699,2.716064,-0.007629,1.106262,23.217773,24.829102,-3.735352
1870946355,-0.447754,-0.201172,0.866699,2.243042,0.106812,0.816345,23.217773,24.829102,-3.735352
1873869845,-0.451172,-0.200195,0.869629,2.639771,0.175476,0.991821,23.217773,24.829102,-3.735352
1876930360,-0.442627,-0.199951,0.867188,2.677917,0.144958,0.900269,23.217773,24.829102,-3.735352
1879911696,-0.444580,-0.198486,0.867676,2.655029,-0.045776,1.068115,23.217773,24.829102,-3.735352
1882932006,-0.443604,-0.195801,0.864746,2.517700,0.000000,0.938416,23.217773,24.829102,-3.735352
1886016726,-0.450195,-0.196777,0.867188,2.708435,0.076294,0.923157,23.217773,24.829102,-3.735352
1888983703,-0.449707,-0.190918,0.871826,2.647400,0.129700,0.732422,23.144531,24.902344,-3.808594
1892021654,-0.449463,-0.194824,0.867920,2.685547,-0.015259,0.823975,23.144531,24.902344,-3.808594
1894973452,-0.442139,-0.192871,0.869141,2.540588,-0.045776,0.671387,23.144531,24.902344,-3.808594
1897985967,-0.446533,-0.191406,0.869385,2.616882,-0.061035,0.709534,23.144531,24.902344,-3.808594
1901020226,-0.445557,-0.193359,0.866455,2.555847,0.312805,0.625610,23.144531,24.902344,-3.808594
1904078690,-0.447510,-0.192871,0.871338,2.525330,0.099182,0.862122,23.144531,24.902344,-3.808594
1907035821,-0.445313,-0.192383,0.857666,2.624512,0.175476,0.411987,22.924805,23.657227,-4.174805
1910066798,-0.442139,-0.190674,0.865479,2.731323,0.152588,0.648499,22.924805,23.657227,-4.174805
1913042800,-0.445313,-0.191895,0.866211,2.502441,0.045776,0.358582,22.924805,23.657227,-4.174805
1916006495,-0.442383,-0.195313,0.866455,2.662659,0.099182,0.656128,22.924805,23.657227,-4.174805
1919506395,-0.447266,-0.192627,0.866943,2.365112,0.106812,0.587463,22.924805,23.657227,-4.174805
1922548859,-0.445068,-0.199951,0.859863,2.380371,0.305176,0.457764,22.924805,23.657227,-4.174805
1926015118,-0.442383,-0.197998,0.865479,2.708435,0.274658,0.495911,22.924805,23.657227,-4.174805
1928564043,-0.449219,-0.201660,0.865234,2.426147,0.091553,0.228882,23.437500,24.755859,-4.101563
1931588046,-0.445801,-0.197998,0.869141,2.578735,0.251770,0.679016,23.437500,24.755859,-4.101563
1934514407,-0.441895,-0.202637,0.865234,2.471924,0.106812,0.450134,23.437500,24.755859,-4.101563
1937013281,-0.444336,-0.204102,0.871338,2.593994,-0.045776,0.556946,23.437500,24.755859,-4.101563
1939518719,-0.443359,-0.196533,0.871338,2.418518,0.267029,0.579834,23.437500,24.755859,-4.101563
1942065183,-0.445313,-0.197510,0.872559,2.357483,0.228882,0.793457,23.437500,24.755859,-4.101563
1944568980,-0.438477,-0.202148,0.869873,2.540588,0.236511,0.495911,23.437500,24.755859,-4.101563
1947078520,-0.442871,-0.201416,0.869629,2.685547,0.175476,1.029968,23.364258,24.829102,-4.028320
1949566317,-0.440430,-0.204346,0.870850,2.502441,0.404358,0.938416,23.364258,24.829102,-4.028320
1952066832,-0.446777,-0.202637,0.873779,2.830505,0.000000,0.846863,23.364258,24.829102,-4.028320
1954610424,-0.441650,-0.200195,0.875732,2.395630,0.114441,0.862122,23.364258,24.829102,-4.028320
1957612683,-0.440918,-0.197754,0.873291,2.578735,0.427246,0.625610,23.364258,24.829102,-4.028320
1960683044,-0.442627,-0.195801,0.868164,2.616882,0.617981,0.823975,23.364258,24.829102,-4.028320
1963672585,-0.442383,-0.192871,0.872070,2.380371,0.091553,0.907898,23.364258,24.829102,-4.028320
1966644485,-0.443604,-0.195313,0.872559,2.593994,0.541687,1.083374,22.998047,24.829102,-4.028320
1969167564,-0.443359,-0.197021,0.871094,2.288818,0.129700,0.885010,22.998047,24.902344,-4.248047
1972143977,-0.443359,-0.196777,0.867188,2.471924,0.419617,0.831604,22.998047,24.902344,-4.248047
1975143364,-0.443604,-0.194092,0.873535,2.609253,0.366211,0.808716,22.998047,24.902344,-4.248047
1978140289,-0.442627,-0.193359,0.868408,2.380371,0.762939,0.877380,22.998047,24.902344,-4.248047
1980737214,-0.440430,-0.192139,0.867920,2.281189,0.549316,0.778198,22.998047,24.902344,-4.248047
1983703781,-0.448242,-0.189209,0.863770,2.380371,0.625610,0.640869,22.998047,24.902344,-4.248047
1986748707,-0.447998,-0.190918,0.871582,2.120972,0.457764,0.968933,23.071289,24.682617,-4.174805
1989725119,-0.446289,-0.189209,0.869385,2.296448,0.457764,0.762939,23.071289,24.682617,-4.174805
1992236301,-0.448486,-0.188477,0.874756,1.983643,0.495911,0.656128,23.071289,24.682617,-4.174805
1995832201,-0.446777,-0.183838,0.872314,2.220154,0.175476,0.694275,23.071289,24.682617,-4.174805
1998735178,-0.445801,-0.189209,0.867188,2.182007,0.312805,0.839233,23.144531,24.462891,-4.248047
2001744001,-0.447021,-0.185547,0.863770,2.090454,0.419617,0.709534,23.144531,24.462891,-4.248047
2004750773,-0.445068,-0.190430,0.862793,1.655579,0.068665,0.793457,23.144531,24.462891,-4.248047
2007751801,-0.446533,-0.195801,0.870850,1.747131,0.144958,0.579834,23.583984,24.316406,-3.808594
2010287598,-0.443359,-0.192871,0.865723,1.785278,-0.007629,0.877380,23.583984,24.316406,-3.808594
2013270164,-0.440674,-0.195068,0.870605,1.647949,0.434875,0.778198,23.583984,24.316406,-3.808594
2016296218,-0.448975,-0.192139,0.866211,1.441956,0.198364,0.778198,23.583984,24.316406,-3.808594
2019270990,-0.448975,-0.196045,0.872314,1.510620,0.061035,1.075745,22.924805,24.682617,-4.614258
2021764120,-0.447754,-0.194580,0.868408,1.480103,-0.007629,0.770569,22.924805,24.682617,-4.614258
2024267917,-0.444092,-0.199951,0.874756,1.220703,0.045776,0.984192,22.924805,24.682617,-4.614258
2027346894,-0.449219,-0.197021,0.873535,1.495361,-0.068665,0.823975,22.998047,24.023438,-3.955078
2030293768,-0.447510,-0.198730,0.874512,1.419067,0.083923,0.907898,22.998047,24.023438,-3.955078
2033353053,-0.445313,-0.202881,0.877441,1.396179,-0.267029,0.823975,22.998047,24.023438,-3.955078
2036328645,-0.446289,-0.203857,0.866943,1.670837,0.183105,1.159668,22.998047,24.023438,-3.955078
2038828339,-0.446777,-0.197266,0.872314,1.708984,0.152588,0.633240,23.364258,24.536133,-4.174805
2041325162,-0.447510,-0.202148,0.869385,1.861572,0.030518,0.633240,23.364258,24.536133,-4.174805
2043835523,-0.448242,-0.205566,0.863770,1.701355,-0.122070,0.724792,23.364258,24.536133,-4.174805
2046895628,-0.442871,-0.206055,0.864746,1.861572,0.221252,0.572205,23.071289,24.682617,-3.588867
2049851528,-0.444336,-0.211182,0.868408,1.953125,-0.053406,1.060486,23.071289,24.682617,-3.588867
2052883325,-0.443359,-0.209961,0.862793,1.670837,-0.053406,0.831604,23.071289,24.682617,-3.588867
2055913481,-0.440430,-0.209473,0.866211,2.044678,-0.015259,0.869751,23.071289,24.682617,-3.588867
2058863638,-0.441650,-0.208984,0.862305,2.090454,0.099182,0.961304,23.437500,24.755859,-4.248047
2061913896,-0.438232,-0.204590,0.867432,2.197266,0.000000,0.869751,23.437500,24.755859,-4.248047
2065011335,-0.436768,-0.204346,0.858398,2.227783,-0.274658,1.258850,23.437500,24.755859,-4.248047
2067955337,-0.435791,-0.202881,0.857666,2.098083,0.228882,0.930786,22.998047,24.316406,-4.248047
2070952263,-0.437744,-0.206299,0.858398,2.357483,-0.160217,0.961304,22.998047,24.316406,-4.248047
2073945086,-0.437256,-0.205811,0.860840,2.410889,0.129700,1.136780,22.998047,24.316406,-4.248047
2076496062,-0.437500,-0.203125,0.862305,2.517700,0.114441,1.106262,22.631836,24.096680,-4.467773
2079408065,-0.433838,-0.207031,0.859131,2.708435,-0.015259,1.007080,22.631836,24.096680,-4.467773
2082457913,-0.437012,-0.202393,0.868164,2.586365,0.091553,1.022339,22.631836,24.096680,-4.467773
2085527454,-0.436279,-0.204346,0.864014,2.967834,0.175476,1.182556,22.631836,24.096680,-4.467773
2088446021,-0.438477,-0.202393,0.871094,3.089905,0.289917,0.976563,22.631836,24.096680,-4.467773
2091517203,-0.435791,-0.203857,0.866211,3.143311,0.350952,1.152039,22.631836,24.096680,-4.467773
2094558026,-0.438965,-0.201172,0.867920,3.242493,0.000000,1.174927,22.631836,24.096680,-4.467773
2097488900,-0.436523,-0.202148,0.869629,3.150940,0.404358,1.182556,23.071289,24.389648,-4.028320
2100575672,-0.441162,-0.200439,0.876221,3.097534,0.251770,1.274109,23.071289,24.389648,-4.028320
2103554136,-0.445801,-0.201904,0.871094,3.120422,0.228882,1.296997,23.071289,24.389648,-4.028320
2106587574,-0.445557,-0.199219,0.873291,3.196716,0.350952,1.419067,23.071289,24.389648,-4.028320
2109573012,-0.446289,-0.200684,0.877197,3.791809,0.381470,1.609802,23.071289,24.389648,-4.028320
2112543271,-0.443604,-0.196777,0.873291,3.150940,0.404358,1.380920,23.071289,24.389648,-4.028320
2115635787,-0.445068,-0.198730,0.881836,3.616333,0.770569,1.213074,23.071289,24.389648,-4.028320
2118603994,-0.445801,-0.196533,0.875000,3.410339,0.617981,1.564026,23.217773,24.682617,-4.028320
2121557433,-0.440430,-0.188965,0.872070,3.349304,0.717163,1.419067,23.217773,24.682617,-4.028320
2124613435,-0.444580,-0.192871,0.870605,3.662109,0.640869,1.281738,23.217773,24.682617,-4.028320
2127623489,-0.441650,-0.192627,0.874023,3.425598,0.625610,1.281738,23.217773,24.682617,-4.028320
2130581850,-0.443359,-0.189941,0.868896,3.486633,0.572205,1.060486,23.217773,24.682617,-4.028320
2134082981,-0.444092,-0.192627,0.866211,3.250122,0.793457,1.190186,23.217773,24.682617,-4.028320
2137122163,-0.440674,-0.190918,0.875000,3.463745,0.686646,1.380920,22.412109,24.462891,-3.955078
2140132627,-0.442871,-0.193604,0.869873,2.914429,0.541687,1.182556,22.412109,24.462891,-3.955078
2143144732,-0.443604,-0.194580,0.865967,3.120422,0.801086,1.342773,22.412109,24.462891,-3.955078
2146123607,-0.443115,-0.192871,0.877930,3.028870,0.709534,1.304626,22.412109,24.462891,-3.955078
2149146378,-0.440430,-0.189941,0.870605,3.135681,0.816345,1.586914,22.412109,24.462891,-3.955078
2152634791,-0.441162,-0.191895,0.872559,2.891541,0.816345,1.289368,22.412109,24.462891,-3.955078
2155613666,-0.442383,-0.195068,0.870117,2.815247,0.732422,1.319885,22.412109,24.462891,-3.955078
2158111309,-0.441406,-0.192627,0.873535,3.181458,1.007080,1.533508,23.144531,25.048828,-4.248047
2160659413,-0.440430,-0.191895,0.876465,2.586365,1.007080,1.457214,23.144531,25.048828,-4.248047
2163664544,-0.442139,-0.189209,0.871582,3.143311,0.968933,1.419067,23.144531,25.048828,-4.248047
2166679931,-0.441650,-0.190186,0.877441,2.441406,1.243591,1.251221,23.144531,25.048828,-4.248047
2169679318,-0.442139,-0.189697,0.873779,2.807617,0.999451,1.350403,23.144531,25.048828,-4.248047
2172716449,-0.444824,-0.187256,0.881592,2.471924,1.289368,1.335144,23.144531,25.048828,-4.248047
2175683015,-0.440674,-0.189941,0.871094,2.647400,1.182556,1.159668,23.144531,25.048828,-4.248047
2178682813,-0.438965,-0.186523,0.870117,2.738953,1.113892,1.373291,22.998047,24.902344,-3.808594
2181683431,-0.440430,-0.186035,0.872803,2.616882,1.434326,1.190186,22.998047,24.902344,-3.808594
2184237689,-0.444336,-0.187744,0.875977,2.441406,1.457214,1.007080,22.998047,24.902344,-3.808594
2186769384,-0.444336,-0.190918,0.877686,2.586365,1.342773,1.121521,22.998047,24.902344,-3.808594
2189783130,-0.440918,-0.187256,0.873535,2.548218,1.495361,0.595093,22.998047,24.902344,-3.808594
2192745183,-0.445068,-0.187744,0.875488,2.487183,1.449585,0.953674,22.998047,24.902344,-3.808594
2195737596,-0.449463,-0.192383,0.876465,2.357483,1.525879,1.068115,22.705078,24.902344,-3.808594
2198748470,-0.445068,-0.186279,0.864746,2.456665,1.960754,0.801086,22.705078,24.902344,-3.808594
2201251857,-0.449707,-0.188477,0.867188,2.258301,1.716614,0.724792,22.705078,24.902344,-3.808594
2204288167,-0.451660,-0.187256,0.864502,2.380371,1.472473,0.701904,22.705078,24.902344,-3.808594
2206778426,-0.453369,-0.190918,0.869141,2.441406,1.571655,0.480652,22.705078,24.902344,-3.808594
2209280581,-0.454346,-0.191895,0.861816,2.441406,1.472473,0.656128,22.705078,24.902344,-3.808594
2212254943,-0.455811,-0.189941,0.859131,2.151489,1.228333,0.877380,22.705078,24.902344,-3.808594
2215286740,-0.456055,-0.190918,0.860840,1.968384,1.304626,0.900269,22.705078,24.902344,-3.808594
2217819665,-0.460205,-0.194580,0.860107,2.197266,1.296997,0.946045,22.558594,25.195313,-4.248047
2220787052,-0.449463,-0.192383,0.861816,2.006531,1.205444,0.900269,22.558594,25.195313,-4.248047
2223500080,-0.457031,-0.188721,0.854736,1.678467,0.892639,0.862122,22.558594,25.195313,-4.248047
2226332493,-0.459473,-0.194824,0.859131,1.663208,0.984192,0.961304,22.558594,25.195313,-4.248047
2229333521,-0.452637,-0.192139,0.859131,1.747131,0.633240,1.174927,22.558594,25.195313,-4.248047
2231835267,-0.458496,-0.191162,0.864746,1.441956,0.442505,0.762939,22.558594,25.195313,-4.248047
2234343987,-0.451660,-0.192139,0.862793,1.693726,0.740051,1.159668,22.558594,25.195313,-4.248047
2237391784,-0.455322,-0.192627,0.860596,1.480103,0.190735,1.152039,23.144531,24.755859,-4.248047
2240432607,-0.450439,-0.192871,0.855469,1.678467,0.473022,0.953674,23.144531,24.755859,-4.248047
2243417225,-0.454102,-0.192383,0.860596,1.419067,0.289917,0.915527,23.144531,24.755859,-4.248047
2246476920,-0.453857,-0.194336,0.859131,1.434326,-0.007629,0.869751,23.144531,24.755859,-4.248047
2249403691,-0.449219,-0.196533,0.861328,1.762390,0.144958,0.991821,23.144531,24.755859,-4.248047
2252393642,-0.448730,-0.196777,0.868652,1.533508,-0.076294,1.129150,23.144531,24.755859,-4.248047
2255448824,-0.449951,-0.200195,0.865234,1.693726,-0.015259,0.846863,23.364258,24.829102,-4.248047
2258415801,-0.447998,-0.196533,0.871338,1.579285,0.053406,1.060486,23.364258,24.829102,-4.321289
2261414368,-0.449219,-0.198975,0.867432,1.495361,0.274658,1.235962,23.364258,24.829102,-4.321289
2264479806,-0.446045,-0.202148,0.864990,1.365662,0.236511,1.014709,23.364258,24.829102,-4.321289
2267443091,-0.444824,-0.200684,0.869873,1.731873,0.251770,1.098633,23.364258,24.829102,-4.321289
2270961863,-0.444336,-0.199463,0.878662,1.853943,0.320435,0.816345,23.364258,24.829102,-4.321289
2273943609,-0.447266,-0.200928,0.870361,1.838684,0.244141,0.923157,23.364258,24.829102,-4.321289
2276976637,-0.448486,-0.202637,0.867676,1.594543,0.183105,0.907898,22.412109,24.462891,-4.248047
2280011716,-0.443359,-0.204102,0.875977,2.258301,0.297546,0.747681,22.412109,24.462891,-4.248047
2283042693,-0.444336,-0.199707,0.873291,2.540588,0.167847,1.144409,22.412109,24.462891,-4.248047
2286487209,-0.447021,-0.201172,0.870850,2.273560,0.205994,1.068115,22.412109,24.462891,-4.248047
2288998801,-0.451660,-0.198730,0.875000,2.044678,0.045776,0.892639,22.412109,24.462891,-4.248047
2292036342,-0.447754,-0.204102,0.874268,2.212524,0.389099,0.946045,22.412109,24.462891,-4.248047
2294987318,-0.447021,-0.203613,0.870117,2.304077,0.274658,0.839233,22.412109,24.462891,-4.248047
2297485782,-0.447998,-0.204102,0.871338,2.609253,-0.228882,0.923157,23.510742,24.829102,-3.881836
2300086400,-0.447510,-0.200439,0.866943,2.838135,0.419617,0.839233,23.510742,24.829102,-3.881836
2303555531,-0.447266,-0.201416,0.868652,2.876282,0.251770,0.953674,23.510742,24.829102,-3.881836
2306098302,-0.447021,-0.197266,0.866943,2.578735,0.228882,1.167297,22.924805,24.243164,-4.174805
2309019740,-0.446289,-0.198730,0.864014,2.929688,0.007629,1.251221,22.924805,24.243164,-4.174805
2311547742,-0.448730,-0.197266,0.861084,2.700806,-0.022888,0.854492,22.924805,24.243164,-4.174805
2315105079,-0.446777,-0.198486,0.868164,3.196716,0.083923,1.091003,22.924805,24.243164,-4.174805
2318076158,-0.448486,-0.195557,0.873779,2.708435,-0.152588,0.976563,22.851563,24.609375,-3.955078
2321100981,-0.447266,-0.192139,0.867432,2.784729,-0.129700,0.976563,22.851563,24.609375,-3.955078
2324082727,-0.444336,-0.190430,0.864990,2.906799,0.022888,0.999451,22.851563,24.609375,-3.955078
2327086217,-0.444092,-0.188477,0.870605,2.906799,-0.251770,1.258850,23.217773,24.829102,-4.321289
2329587142,-0.444092,-0.188721,0.869873,2.960205,-0.076294,0.877380,23.217773,24.829102,-4.321289
2332695247,-0.438721,-0.190918,0.872314,2.891541,0.061035,1.197815,23.217773,24.829102,-4.321289
2335678634,-0.442627,-0.189697,0.881836,2.723694,-0.190735,1.136780,22.924805,24.829102,-4.321289
2338643970,-0.439209,-0.187500,0.872559,2.975464,0.045776,0.953674,22.924805,24.829102,-4.321289
2341672895,-0.440430,-0.185547,0.876709,2.868652,0.038147,1.098633,22.924805,24.829102,-4.321289
2345185924,-0.436523,-0.187988,0.876953,2.677917,0.312805,0.930786,22.924805,24.829102,-4.321289
2348133208,-0.431641,-0.186523,0.877197,2.754211,0.137329,0.885010,23.291016,24.755859,-3.955078
2351143262,-0.431885,-0.185791,0.873291,2.861023,0.267029,0.793457,23.291016,24.755859,-3.955078
2353653213,-0.436035,-0.181152,0.877930,2.647400,0.244141,0.877380,23.291016,24.755859,-3.955078
2356645215,-0.433594,-0.185791,0.879150,2.830505,0.839233,0.823975,22.924805,24.682617,-4.174805
2359219987,-0.432373,-0.183594,0.883545,2.586365,0.999451,0.717163,22.924805,24.682617,-4.174805
2362201733,-0.435547,-0.188232,0.876953,2.532959,0.633240,0.953674,22.924805,24.682617,-4.174805
2365244607,-0.433838,-0.186523,0.885986,2.319336,0.747681,1.068115,22.851563,24.462891,-4.394531
2368232097,-0.437012,-0.185547,0.884033,2.304077,1.289368,0.885010,22.851563,24.462891,-4.394531
2371201945,-0.436768,-0.183350,0.876221,2.120972,0.740051,0.907898,22.851563,24.462891,-4.394531
2374204614,-0.437988,-0.181152,0.878418,2.265930,1.197815,0.831604,22.851563,24.462891,-4.394531
2376788001,-0.439697,-0.177979,0.874268,2.059937,1.083374,0.831604,22.778320,25.122070,-4.467773
2379758670,-0.441650,-0.179688,0.879150,2.182007,1.312256,0.816345,22.778320,25.122070,-4.467773
2383260622,-0.444580,-0.176758,0.876709,1.876831,1.281738,0.640869,22.778320,25.122070,-4.467773
2386339188,-0.447754,-0.176514,0.875732,2.021790,1.152039,0.778198,22.412109,24.609375,-4.394531
2389306986,-0.449707,-0.179688,0.870361,1.785278,1.152039,0.717163,22.412109,24.609375,-4.394531
2392307603,-0.449219,-0.176025,0.867920,1.731873,1.502991,0.480652,22.412109,24.609375,-4.394531
2395272939,-0.451172,-0.175537,0.869629,1.602173,1.037598,0.312805,22.412109,24.609375,-4.394531
2398310480,-0.452637,-0.177246,0.866211,1.449585,1.029968,0.289917,22.412109,24.609375,-4.394531
2401298380,-0.449951,-0.178467,0.862305,1.289368,0.938416,0.549316,22.412109,24.609375,-4.394531
2404324024,-0.452393,-0.178711,0.856445,1.129150,0.762939,0.061035,22.412109,24.609375,-4.394531
2407327103,-0.451660,-0.178467,0.859131,1.014709,0.610352,0.221252,22.998047,23.876953,-4.980469
2410326490,-0.449463,-0.182861,0.864746,0.816345,0.724792,0.144958,22.998047,23.876953,-4.980469
2413346390,-0.444336,-0.182861,0.864990,0.915527,0.724792,0.129700,22.998047,23.876953,-4.980469
2416398700,-0.448486,-0.181152,0.862305,0.663757,0.549316,0.183105,22.998047,23.876953,-4.980469
2419319728,-0.444092,-0.187012,0.859863,0.869751,0.518799,0.389099,22.998047,23.876953,-4.980469
2422371218,-0.444336,-0.188232,0.865967,0.564575,0.610352,-0.022888,22.998047,23.876953,-4.980469
2425367733,-0.442383,-0.191406,0.867920,0.755310,0.434875,0.167847,22.924805,24.829102,-4.321289
2428381479,-0.444580,-0.192627,0.864990,0.473022,0.335693,0.015259,22.924805,24.829102,-4.321289
2430950507,-0.446045,-0.196533,0.863525,0.732422,0.465393,0.144958,22.924805,24.829102,-4.321289
2433891638,-0.443604,-0.200684,0.867432,1.098633,0.221252,0.267029,22.924805,24.829102,-4.321289
2436917691,-0.440186,-0.198730,0.877197,0.831604,0.160217,0.152588,22.924805,24.829102,-4.321289
2439960155,-0.440430,-0.200684,0.874268,1.106262,0.358582,-0.083923,22.924805,24.829102,-4.321289
2442922209,-0.446777,-0.205322,0.873047,1.258850,0.358582,0.564575,22.924805,24.829102,-4.321289
2445916263,-0.447266,-0.210205,0.875732,1.434326,0.274658,0.251770,22.924805,24.243164,-4.467773
2448414726,-0.446045,-0.209229,0.881592,1.304626,0.610352,0.213623,22.924805,24.243164,-4.467773
2450914831,-0.442383,-0.206055,0.875000,1.670837,0.549316,0.526428,22.924805,24.243164,-4.467773
2453422320,-0.447266,-0.209961,0.872070,1.663208,0.541687,0.289917,22.924805,24.243164,-4.467773
2456415143,-0.447754,-0.208008,0.875732,1.869202,0.480652,0.190735,22.924805,24.243164,-4.467773
2458916479,-0.448486,-0.208740,0.875732,2.182007,0.686646,0.473022,22.924805,24.243164,-4.467773
2461417404,-0.446289,-0.206299,0.869629,1.800537,0.350952,0.373840,22.924805,24.243164,-4.467773
2463923252,-0.446777,-0.204834,0.863525,2.426147,0.503540,0.625610,23.071289,24.243164,-4.467773
2466522639,-0.444824,-0.208496,0.866699,2.693176,0.747681,0.381470,23.071289,24.829102,-4.028320
2469477718,-0.445801,-0.208008,0.861328,2.006531,0.427246,0.816345,23.071289,24.829102,-4.028320
2472530028,-0.442383,-0.208008,0.869385,2.670288,0.709534,0.679016,23.071289,24.829102,-4.028320
2475535569,-0.447266,-0.205566,0.863770,2.624512,0.411987,0.724792,23.071289,24.829102,-4.028320
2478486136,-0.443604,-0.205322,0.864014,2.479553,0.671387,1.014709,23.071289,24.829102,-4.028320
2481010445,-0.444824,-0.204346,0.862793,2.250671,0.587463,0.991821,23.071289,24.829102,-4.028320
2483988499,-0.445801,-0.205566,0.862549,2.693176,0.694275,0.923157,23.071289,24.829102,-4.028320
2486493937,-0.448730,-0.204102,0.860596,2.593994,0.617981,1.190186,22.778320,24.975586,-3.881836
2489541324,-0.448975,-0.197754,0.853516,2.624512,0.381470,1.075745,22.778320,24.975586,-3.881836
2492039378,-0.447021,-0.199951,0.862061,2.655029,0.526428,1.243591,22.778320,24.975586,-3.881836
2495037534,-0.453125,-0.195068,0.864746,2.532959,0.259399,1.190186,22.778320,24.975586,-3.881836
2497538459,-0.446289,-0.195557,0.858643,2.548218,0.366211,1.213074,22.778320,24.975586,-3.881836
2500038564,-0.451416,-0.197266,0.867920,2.891541,0.175476,1.258850,22.778320,24.975586,-3.881836
2503213951,-0.452637,-0.198242,0.862061,2.632141,0.076294,1.052856,22.778320,24.975586,-3.881836
2506134979,-0.445068,-0.189209,0.860596,2.601624,0.312805,1.289368,23.071289,24.389648,-3.881836
2509175392,-0.446533,-0.186768,0.866699,2.426147,0.007629,1.129150,23.071289,24.389648,-3.881836
2512148112,-0.446533,-0.188232,0.869385,2.388000,-0.076294,1.464844,23.071289,24.389648,-3.881836
2515065448,-0.447021,-0.190430,0.873779,2.433777,-0.137329,1.426697,23.071289,24.389648,-3.881836
2517563501,-0.443604,-0.189209,0.876221,2.326965,0.030518,1.037598,23.071289,24.389648,-3.881836
2520065247,-0.442627,-0.185059,0.868408,2.410889,-0.038147,1.037598,23.071289,24.389648,-3.881836
2522672018,-0.439453,-0.190430,0.870605,2.288818,0.267029,1.091003,23.071289,24.389648,-3.881836
2525666072,-0.437744,-0.187988,0.874756,2.311707,0.228882,1.037598,23.583984,25.341797,-4.248047
2528616228,-0.435547,-0.190674,0.872559,2.548218,-0.015259,1.060486,23.583984,25.341797,-4.248047
2531109769,-0.441895,-0.189453,0.876465,2.273560,0.183105,1.007080,23.583984,25.341797,-4.248047
2533662386,-0.442139,-0.187988,0.871826,2.235413,-0.015259,0.785828,23.583984,25.341797,-4.248047
2536665055,-0.439453,-0.187500,0.876953,2.136230,0.404358,0.915527,23.583984,25.341797,-4.248047
2539663622,-0.441650,-0.187500,0.877441,2.342224,0.022888,1.083374,23.583984,25.341797,-4.248047
2542773368,-0.440674,-0.188232,0.866455,2.082825,0.221252,0.663757,23.583984,25.341797,-4.248047
2545664857,-0.437988,-0.186523,0.864502,2.029419,0.419617,0.778198,23.437500,24.462891,-3.955078
2548201475,-0.442627,-0.187988,0.874023,2.426147,0.564575,1.159668,23.437500,24.462891,-3.955078
2551273067,-0.440918,-0.186035,0.876953,1.571655,0.228882,0.801086,23.437500,24.462891,-3.955078
2554210506,-0.445313,-0.184082,0.877197,1.655579,0.518799,1.045227,23.437500,24.462891,-3.955078
2557270611,-0.438721,-0.187744,0.875488,1.640320,0.511169,0.892639,23.437500,24.462891,-3.955078
2560815229,-0.442627,-0.190430,0.867920,1.663208,0.709534,1.007080,23.437500,24.462891,-3.955078
2563783436,-0.440918,-0.189697,0.869141,1.449585,0.480652,1.029968,23.437500,24.462891,-3.955078
2566767644,-0.443115,-0.187988,0.874756,1.594543,0.724792,0.953674,22.705078,24.609375,-3.955078
2569825698,-0.442383,-0.187012,0.876953,1.449585,0.488281,0.968933,22.705078,24.609375,-3.955078
2573298521,-0.438965,-0.190186,0.874268,1.289368,0.930786,0.915527,22.705078,24.609375,-3.955078
2576255242,-0.442383,-0.193359,0.875000,1.403809,0.465393,0.953674,22.705078,24.609375,-3.955078
2578761910,-0.438721,-0.187744,0.874512,1.380920,0.823975,0.839233,22.705078,24.609375,-3.955078
2581263246,-0.444580,-0.192871,0.874268,1.281738,0.762939,0.846863,22.705078,24.609375,-3.955078
2583760889,-0.441406,-0.195557,0.870605,1.274109,0.274658,0.785828,23.291016,24.755859,-4.248047
2586260583,-0.439453,-0.193848,0.865234,1.434326,0.740051,0.839233,23.291016,24.755859,-4.248047
2588761918,-0.439697,-0.193848,0.877197,1.243591,1.098633,1.251221,23.291016,24.755859,-4.248047
2591264074,-0.443359,-0.195313,0.872314,1.327515,0.793457,0.762939,23.291016,24.755859,-4.248047
2593856487,-0.441650,-0.194336,0.876953,1.266479,0.999451,0.923157,23.291016,24.755859,-4.248047
2596862848,-0.443359,-0.197021,0.879395,1.304626,0.816345,0.808716,23.291016,24.755859,-4.248047
2599858133,-0.440918,-0.199951,0.869385,1.220703,1.083374,0.762939,23.291016,24.755859,-4.248047
2603417110,-0.444092,-0.197021,0.870117,1.449585,0.846863,0.900269,23.291016,24.755859,-4.248047
2606396805,-0.444336,-0.197266,0.880127,1.441956,0.862122,0.961304,23.291016,24.609375,-3.515625
2609445833,-0.448242,-0.200195,0.879150,1.113892,1.014709,0.877380,23.291016,24.609375,-3.515625
2612494861,-0.445313,-0.199951,0.879150,1.609802,0.938416,0.778198,23.291016,24.609375,-3.515625
2615417120,-0.444580,-0.198975,0.878906,1.564026,1.007080,0.610352,23.291016,24.609375,-3.515625
2618385327,-0.446533,-0.196289,0.870361,1.525879,0.885010,0.671387,23.291016,24.609375,-3.515625
2621381432,-0.447021,-0.196533,0.869385,1.464844,1.075745,0.862122,23.291016,24.609375,-3.515625
2624349640,-0.448242,-0.192383,0.878662,1.945496,0.930786,0.801086,23.291016,24.462891,-4.394531
2627403591,-0.446777,-0.197754,0.871338,1.724243,1.022339,0.869751,23.291016,24.462891,-4.394531
2630400517,-0.445557,-0.195801,0.867920,1.747131,1.129150,0.694275,23.291016,24.462891,-4.394531
2633463904,-0.446289,-0.193359,0.878418,2.037048,1.075745,0.633240,23.291016,24.462891,-4.394531
2636402573,-0.443359,-0.197021,0.870361,1.937866,1.182556,0.556946,22.705078,24.316406,-4.687500
2639400319,-0.447266,-0.197021,0.872559,1.861572,1.358032,0.770569,22.705078,24.316406,-4.687500
2641898372,-0.447266,-0.197266,0.869141,1.747131,0.930786,0.732422,22.705078,24.316406,-4.687500
2644457964,-0.445801,-0.197998,0.869629,2.143860,1.289368,0.640869,22.265625,24.755859,-3.955078
2646982274,-0.447754,-0.193848,0.862549,1.876831,1.121521,0.885010,22.265625,24.755859,-3.955078
2650536328,-0.448486,-0.194580,0.862793,2.265930,1.167297,0.640869,22.265625,24.755859,-3.955078
2653565254,-0.446045,-0.199463,0.869385,1.907349,0.770569,0.846863,22.265625,24.755859,-3.955078
2656513769,-0.448975,-0.196289,0.864502,2.029419,0.961304,0.770569,23.803711,24.389648,-4.028320
2659507823,-0.451904,-0.197754,0.862305,2.044678,0.900269,0.862122,23.803711,24.389648,-4.028320
2662540851,-0.453125,-0.200684,0.858643,2.075195,0.732422,0.808716,23.803711,24.389648,-4.028320
2666039931,-0.451904,-0.198486,0.868896,2.281189,0.946045,1.052856,23.071289,24.682617,-4.321289
2669075831,-0.449707,-0.197998,0.864014,2.098083,0.755310,1.068115,23.071289,24.682617,-4.321289
2672032961,-0.448975,-0.199219,0.864502,2.166748,0.778198,0.915527,23.071289,24.682617,-4.321289
2675012246,-0.448975,-0.195313,0.866699,2.212524,0.511169,0.946045,22.998047,24.462891,-3.955078
2677510709,-0.449219,-0.199219,0.870850,1.968384,0.656128,1.174927,22.998047,24.462891,-3.955078
2680028455,-0.447998,-0.194580,0.864014,2.037048,0.534058,1.228333,22.998047,24.462891,-3.955078
2682537585,-0.448730,-0.190186,0.861328,2.258301,0.526428,0.831604,22.998047,24.462891,-3.955078
2685550100,-0.449951,-0.191650,0.864258,2.166748,0.495911,0.808716,23.217773,24.682617,-3.588867
2688527744,-0.449463,-0.192383,0.871826,2.227783,0.587463,0.900269,23.217773,24.682617,-3.588867
2691028259,-0.443359,-0.192139,0.872559,2.372742,0.679016,0.831604,23.217773,24.682617,-3.588867
2693530825,-0.444580,-0.192627,0.877197,2.464294,0.335693,0.785828,22.924805,24.975586,-4.321289
2696075648,-0.444336,-0.191650,0.872314,2.235413,0.564575,0.801086,22.924805,24.975586,-4.321289
2699083650,-0.442383,-0.192383,0.871582,2.220154,0.923157,0.885010,22.924805,24.975586,-4.321289
2702082217,-0.446777,-0.195313,0.872314,2.456665,0.610352,0.732422,22.924805,24.975586,-4.321289
2705074629,-0.443115,-0.191895,0.863770,2.189636,0.915527,0.984192,22.924805,24.975586,-4.321289
2708200375,-0.444824,-0.190186,0.872559,2.281189,0.953674,0.686646,22.924805,24.975586,-4.321289
2711165301,-0.441895,-0.192383,0.869141,2.487183,0.823975,0.732422,22.924805,24.975586,-4.321289
2714172073,-0.446045,-0.187012,0.867920,1.922607,0.709534,0.823975,22.631836,24.536133,-4.028320
2717177614,-0.443115,-0.184814,0.870605,2.197266,0.686646,1.014709,22.631836,24.536133,-4.028320
2720204078,-0.443359,-0.185303,0.871338,2.029419,0.846863,0.823975,22.631836,24.536133,-4.028320
2723191567,-0.448975,-0.182373,0.875000,2.128601,0.640869,0.747681,22.631836,24.536133,-4.028320
2726221313,-0.447510,-0.183838,0.868896,2.021790,0.892639,0.885010,22.631836,24.536133,-4.028320
2729195264,-0.445557,-0.180420,0.868164,1.960754,0.900269,0.732422,22.631836,24.536133,-4.028320
2732250857,-0.443359,-0.182129,0.865723,1.853943,0.587463,0.839233,22.631836,24.536133,-4.028320
2735679783,-0.446045,-0.183350,0.868164,1.754761,0.869751,0.747681,22.924805,25.268555,-4.321289
2738720195,-0.446777,-0.182861,0.872803,1.228333,0.579834,0.762939,22.924805,25.268555,-4.321289
2742305429,-0.441650,-0.183594,0.865234,1.853943,0.640869,0.862122,22.924805,25.268555,-4.321289
2745209226,-0.445557,-0.185547,0.867432,1.266479,0.503540,0.740051,22.924805,25.268555,-4.321289
2748278767,-0.442139,-0.185303,0.869873,1.495361,0.488281,0.579834,22.924805,25.268555,-4.321289
2751279795,-0.442383,-0.182617,0.874023,1.350403,0.343323,0.717163,22.924805,25.268555,-4.321289
2754241849,-0.445557,-0.181396,0.871582,1.197815,0.488281,0.648499,22.998047,24.609375,-3.955078
2757210057,-0.444336,-0.186279,0.876709,1.358032,0.434875,0.343323,22.998047,24.609375,-3.955078
2760220521,-0.437744,-0.187744,0.872559,1.121521,0.366211,0.595093,22.998047,24.609375,-3.955078
2763291292,-0.442383,-0.184814,0.869873,1.113892,0.648499,0.617981,22.998047,24.609375,-3.955078
2766279603,-0.442383,-0.188965,0.871338,0.907898,0.770569,0.434875,22.998047,24.609375,-3.955078
2769834888,-0.446289,-0.185059,0.867920,1.152039,0.724792,0.541687,22.998047,24.609375,-3.955078
2772833044,-0.448730,-0.185303,0.871094,0.701904,0.564575,0.732422,22.998047,24.609375,-3.955078
2775797559,-0.441895,-0.187744,0.868896,0.953674,0.526428,0.305176,23.071289,24.536133,-3.881836
2778341971,-0.443604,-0.187256,0.874512,0.839233,0.549316,0.205994,23.071289,24.536133,-3.881836
2781306487,-0.443848,-0.186768,0.875488,0.816345,0.823975,0.518799,23.071289,24.536133,-3.881836
2784317771,-0.443848,-0.190918,0.877441,0.831604,0.801086,0.328064,23.071289,24.536133,-3.881836
2786817466,-0.444824,-0.196045,0.871582,1.029968,0.915527,0.297546,23.071289,24.536133,-3.881836
2789295416,-0.444580,-0.194580,0.869385,1.098633,0.617981,0.282288,23.071289,24.536133,-3.881836
2791800444,-0.445801,-0.194580,0.866699,1.113892,0.831604,0.091553,23.071289,24.536133,-3.881836
2794342805,-0.445801,-0.195557,0.869629,1.220703,0.770569,0.007629,22.998047,24.462891,-3.808594
2796840448,-0.445068,-0.194336,0.870361,1.403809,0.701904,0.282288,22.998047,24.462891,-3.808594
2799341373,-0.445068,-0.195557,0.869385,1.213074,0.679016,0.083923,22.998047,24.462891,-3.808594
2801840247,-0.443359,-0.195557,0.873047,1.457214,0.656128,0.167847,22.998047,24.462891,-3.808594
2804864660,-0.445068,-0.198730,0.870850,1.342773,0.747681,0.267029,22.998047,24.462891,-3.808594
2807416047,-0.442627,-0.197266,0.870605,1.335144,0.785828,-0.007629,22.998047,24.462891,-3.808594
2810411331,-0.444580,-0.195557,0.872314,1.304626,0.862122,0.389099,22.998047,24.462891,-3.808594
2813434103,-0.443848,-0.198242,0.872803,1.495361,0.900269,0.114441,23.217773,24.536133,-4.614258
2816898311,-0.445313,-0.195801,0.866699,1.167297,0.770569,0.305176,23.217773,24.536133,-4.614258
2819980980,-0.444092,-0.197266,0.869629,1.304626,0.747681,0.144958,23.217773,24.536133,-4.614258
2822963136,-0.446045,-0.198486,0.873779,1.129150,0.900269,0.450134,23.217773,24.536133,-4.614258
2825980985,-0.445068,-0.197510,0.865234,1.098633,0.724792,0.572205,23.217773,24.536133,-4.614258
2829030013,-0.446289,-0.197754,0.869141,1.457214,1.045227,0.183105,23.217773,24.536133,-4.614258
2831982631,-0.442627,-0.195313,0.866455,1.487732,0.885010,0.198364,23.217773,24.536133,-4.614258
2835471865,-0.443604,-0.199951,0.864502,1.434326,0.495911,0.312805,23.583984,24.316406,-3.955078
2838487662,-0.444092,-0.199219,0.872803,1.602173,0.747681,0.221252,23.583984,24.316406,-3.955078
2840994741,-0.443604,-0.192139,0.869141,1.525879,0.923157,0.183105,23.583984,24.316406,-3.955078
2843976897,-0.444824,-0.196045,0.866211,1.388550,0.717163,0.396729,23.583984,24.316406,-3.955078
2846952489,-0.442871,-0.196533,0.869629,1.113892,0.656128,0.335693,23.583984,24.316406,-3.955078
2849994133,-0.443848,-0.196777,0.876221,1.655579,0.915527,0.473022,23.583984,24.316406,-3.955078
2852981622,-0.440674,-0.197021,0.878174,1.426697,0.511169,0.450134,22.705078,24.169922,-4.101563
2856065933,-0.442871,-0.196533,0.877197,1.472473,0.961304,0.762939,22.705078,24.169922,-4.101563
2859071474,-0.440674,-0.198242,0.877441,1.350403,0.778198,0.373840,22.705078,24.169922,-4.101563
2862070450,-0.442139,-0.194580,0.871094,1.541138,0.953674,0.610352,22.705078,24.169922,-4.101563
2865539992,-0.439941,-0.189453,0.878174,1.380920,1.129150,0.625610,22.705078,24.169922,-4.101563
2868539789,-0.443848,-0.189453,0.872314,1.457214,1.129150,0.411987,22.705078,24.169922,-4.101563
2871539586,-0.438721,-0.193115,0.870117,1.617432,1.235962,0.724792,22.705078,24.169922,-4.101563
2874040101,-0.441895,-0.192871,0.878906,1.373291,1.136780,0.480652,22.924805,24.389648,-4.174805
2876595591,-0.443115,-0.193359,0.864746,1.220703,1.274109,0.511169,22.924805,24.389648,-4.174805
2879585952,-0.443115,-0.192627,0.871338,1.388550,1.274109,0.396729,22.924805,24.389648,-4.174805
2882542672,-0.445557,-0.196045,0.870850,1.678467,1.373291,0.572205,22.924805,24.389648,-4.174805
2885594572,-0.447021,-0.189453,0.867920,1.281738,0.946045,0.244141,22.924805,24.389648,-4.174805
2888671498,-0.447754,-0.191650,0.868652,1.136780,1.327515,0.518799,22.924805,24.389648,-4.174805
2891673347,-0.448486,-0.193848,0.870850,1.350403,1.342773,0.450134,22.924805,24.389648,-4.174805
2894636221,-0.446777,-0.191650,0.868652,1.342773,1.060486,0.869751,23.364258,25.122070,-4.467773
2897670480,-0.449463,-0.190674,0.861816,1.007080,1.182556,0.213623,23.364258,25.122070,-4.467773
2900677251,-0.445313,-0.192871,0.864990,0.976563,1.136780,0.656128,23.364258,25.122070,-4.467773
2903658177,-0.446777,-0.194824,0.866699,1.235962,1.152039,0.442505,23.364258,25.122070,-4.467773
2906195205,-0.449707,-0.188965,0.865479,1.342773,1.007080,0.526428,23.364258,25.122070,-4.467773
2909142899,-0.448486,-0.194092,0.864746,1.075745,1.228333,0.556946,23.364258,25.122070,-4.467773
2912145158,-0.446533,-0.191162,0.861572,0.984192,0.915527,0.579834,23.364258,25.122070,-4.467773
2915142904,-0.449707,-0.190674,0.863770,1.068115,0.984192,0.473022,23.437500,24.609375,-4.541016
2917640547,-0.453369,-0.192627,0.866699,0.740051,0.999451,0.282288,23.437500,24.609375,-4.541016
2920194396,-0.445801,-0.190674,0.870117,0.984192,0.823975,0.648499,23.437500,24.609375,-4.541016
2923297988,-0.446289,-0.191162,0.871094,0.984192,0.961304,0.175476,22.412109,24.169922,-4.101563
2926184554,-0.449219,-0.192139,0.862305,0.907898,0.961304,0.411987,22.412109,24.169922,-4.101563
2929165480,-0.447266,-0.190918,0.866699,0.526428,0.991821,0.137329,22.412109,24.169922,-4.101563
2931659431,-0.446533,-0.196045,0.868896,0.991821,0.946045,0.617981,22.998047,24.169922,-4.101563
2934211638,-0.448975,-0.194824,0.865479,0.633240,0.862122,0.175476,22.998047,24.169922,-4.248047
2936713383,-0.451172,-0.196045,0.872070,0.915527,0.877380,0.389099,22.998047,24.169922,-4.248047
2939714001,-0.447754,-0.198975,0.869385,0.785828,0.717163,0.282288,22.998047,24.169922,-4.248047
2942212465,-0.450195,-0.195557,0.862793,0.549316,0.778198,0.404358,23.217773,24.975586,-4.321289
2945293493,-0.450439,-0.197510,0.869385,0.625610,0.526428,0.495911,23.217773,24.975586,-4.321289
2948213290,-0.445801,-0.197510,0.861572,0.854492,0.846863,0.251770,23.217773,24.975586,-4.321289
2950765908,-0.445557,-0.195557,0.869141,0.656128,0.709534,0.259399,23.217773,24.975586,-4.321289
2953509705,-0.447998,-0.198730,0.870605,0.816345,0.762939,0.221252,22.998047,24.755859,-4.101563
2956260887,-0.446777,-0.199463,0.863037,0.808716,0.984192,0.350952,22.998047,24.755859,-4.101563
2958761402,-0.447021,-0.202393,0.866943,1.136780,0.923157,0.488281,22.998047,24.755859,-4.101563
2961771455,-0.447266,-0.197998,0.871826,1.075745,1.129150,0.259399,22.998047,24.755859,-4.101563
2964310534,-0.446289,-0.203613,0.871826,0.946045,0.740051,0.610352,22.924805,24.829102,-4.321289
2967350127,-0.446045,-0.199463,0.873047,1.205444,0.839233,0.389099,22.924805,24.829102,-4.321289
2970327360,-0.444336,-0.201416,0.868164,1.029968,0.671387,0.473022,22.924805,24.829102,-4.321289
2973379260,-0.442627,-0.201660,0.869629,1.296997,0.991821,0.305176,22.924805,24.829102,-4.028320
2976400390,-0.441406,-0.201172,0.869629,1.373291,0.991821,0.267029,22.924805,24.829102,-4.028320
2979362444,-0.444824,-0.203613,0.867188,1.136780,1.121521,0.450134,22.924805,24.829102,-4.028320
2982312600,-0.443115,-0.199707,0.865723,1.274109,1.098633,0.549316,22.851563,24.462891,-4.101563
2984899679,-0.440918,-0.204102,0.872803,1.190186,0.793457,0.579834,22.851563,24.462891,-4.101563
2987898246,-0.442871,-0.202393,0.868164,1.220703,1.152039,0.511169,22.851563,24.462891,-4.101563
2990914864,-0.442139,-0.202881,0.874023,1.380920,0.976563,0.526428,22.851563,24.462891,-4.101563
2993888405,-0.446045,-0.201172,0.873535,1.373291,1.014709,0.556946,23.217773,24.975586,-4.028320
2996907074,-0.443604,-0.197998,0.871582,1.358032,1.113892,0.396729,23.217773,24.975586,-4.028320
2999905640,-0.445313,-0.198975,0.872314,1.518250,1.083374,0.717163,23.217773,24.975586,-4.028320
3002902566,-0.447021,-0.197021,0.868896,1.365662,1.251221,0.633240,23.144531,25.048828,-4.101563
3006062774,-0.444580,-0.198730,0.870850,1.541138,1.174927,0.495911,23.144531,25.048828,-4.101563
3008907904,-0.444824,-0.197998,0.865479,1.457214,1.190186,0.495911,23.144531,25.048828,-4.101563
3011909753,-0.445557,-0.197510,0.869385,1.495361,1.342773,0.419617,23.144531,25.048828,-4.101563
3014402063,-0.441162,-0.197266,0.870117,1.731873,1.213074,0.785828,23.144531,25.048828,-4.101563
3016904218,-0.445313,-0.194824,0.866455,1.228333,0.946045,0.556946,23.144531,25.048828,-4.101563
3019535195,-0.445313,-0.198486,0.876709,1.136780,1.174927,0.503540,23.144531,25.048828,-4.101563
3022468120,-0.448486,-0.190674,0.867676,1.342773,1.182556,0.572205,22.485352,24.975586,-4.467773
3025460123,-0.445801,-0.191895,0.871338,1.037598,1.289368,0.457764,22.485352,24.975586,-4.467773
3028040228,-0.449219,-0.192383,0.869629,1.312256,0.946045,0.633240,22.485352,24.975586,-4.467773
3031051102,-0.449951,-0.196045,0.868164,0.900269,1.174927,0.495911,22.485352,24.975586,-4.467773
3033979925,-0.446777,-0.192383,0.866943,1.098633,1.205444,0.541687,22.485352,24.975586,-4.467773
3037042081,-0.449707,-0.194336,0.854004,1.129150,1.022339,0.442505,22.485352,24.975586,-4.467773
3040459520,-0.448486,-0.190674,0.869385,1.281738,1.075745,0.648499,22.485352,24.975586,-4.467773
3043222599,-0.449951,-0.193359,0.863525,1.098633,0.976563,0.556946,23.217773,24.975586,-4.028320
3045971730,-0.451416,-0.195068,0.863770,0.907898,0.778198,0.564575,23.217773,24.975586,-4.028320
3048565783,-0.446289,-0.197510,0.866455,0.984192,0.785828,0.350952,23.217773,24.975586,-4.028320
3051566811,-0.449219,-0.194824,0.875000,1.220703,0.999451,0.572205,23.217773,24.975586,-4.028320
3054523121,-0.445801,-0.193848,0.873291,0.839233,0.869751,0.350952,23.217773,24.975586,-4.028320
3057586919,-0.451416,-0.196777,0.868408,1.045227,0.915527,0.587463,23.217773,24.975586,-4.028320
3060577280,-0.443115,-0.193848,0.874756,1.167297,0.709534,0.518799,23.217773,24.975586,-4.028320
3063554103,-0.447754,-0.194580,0.871338,0.961304,0.900269,0.122070,22.705078,24.755859,-3.955078
3067052772,-0.448242,-0.197998,0.872070,1.121521,1.098633,0.404358,22.705078,24.755859,-3.955078
3070337288,-0.447510,-0.192627,0.867920,1.045227,0.663757,0.343323,22.705078,24.755859,-3.955078
3073097906,-0.446045,-0.194336,0.875000,0.717163,0.610352,0.167847,22.705078,24.755859,-3.955078
3076077190,-0.449219,-0.194336,0.871826,0.938416,1.029968,0.381470,22.705078,24.755859,-3.955078
3079142218,-0.447266,-0.193359,0.870850,0.762939,0.717163,0.160217,22.705078,24.755859,-3.955078
3082115759,-0.445801,-0.200195,0.862061,0.907898,0.991821,0.205994,22.998047,24.755859,-4.541016
3084649095,-0.448486,-0.191895,0.874023,1.007080,0.656128,0.305176,22.998047,24.755859,-4.541016
3087625097,-0.444092,-0.195068,0.862549,1.068115,0.839233,0.114441,22.998047,24.755859,-4.541016
3090116586,-0.446533,-0.192627,0.868652,1.091003,1.037598,0.297546,22.998047,24.755859,-4.541016
3092685204,-0.443848,-0.201172,0.867188,0.999451,1.068115,-0.007629,22.998047,24.755859,-4.541016
3095714950,-0.445557,-0.199463,0.864990,0.885010,1.083374,-0.099182,22.998047,24.755859,-4.541016
3098620388,-0.442627,-0.202148,0.872559,0.953674,1.441956,-0.106812,22.998047,24.755859,-4.541016
3101647673,-0.447754,-0.202881,0.871582,1.220703,0.701904,0.129700,23.437500,24.462891,-4.687500
3104649111,-0.441162,-0.207520,0.865723,1.106262,1.014709,0.000000,23.437500,24.462891,-4.687500
3107718652,-0.442139,-0.204590,0.869141,1.052856,1.068115,0.259399,23.437500,24.462891,-4.687500
3110648295,-0.440674,-0.207764,0.865723,1.441956,0.915527,0.381470,23.437500,24.462891,-4.687500
3113207067,-0.444336,-0.206055,0.870605,1.434326,1.174927,0.244141,23.437500,24.462891,-4.687500
3116194146,-0.446777,-0.206055,0.865479,1.686096,1.266479,0.450134,23.437500,24.462891,-4.687500
3119283790,-0.446045,-0.205566,0.873779,1.480103,1.235962,0.511169,23.437500,24.462891,-4.687500
3122245843,-0.440918,-0.206787,0.866455,1.548767,0.915527,0.831604,23.583984,24.755859,-4.394531
3125735898,-0.442383,-0.203613,0.871826,1.464844,1.457214,0.503540,23.583984,24.755859,-4.394531
3128799695,-0.443604,-0.201904,0.867432,1.632690,1.152039,0.999451,23.583984,24.755859,-4.394531
3131761749,-0.442627,-0.203857,0.869141,1.274109,1.296997,0.808716,23.583984,24.755859,-4.394531
3134802161,-0.441895,-0.199707,0.866699,1.670837,1.251221,0.938416,23.583984,24.755859,-4.394531
3137711702,-0.444580,-0.200439,0.872314,1.495361,1.312256,0.740051,23.583984,24.755859,-4.394531
3140219602,-0.447266,-0.199707,0.869873,1.792908,1.144409,0.991821,23.583984,24.755859,-4.394531
3142809142,-0.453369,-0.193848,0.867432,1.594543,1.045227,0.801086,22.851563,25.195313,-4.101563
3145794170,-0.450195,-0.196777,0.865723,1.403809,1.243591,0.900269,22.851563,25.195313,-4.101563
3148820224,-0.449219,-0.199463,0.864746,1.579285,1.541138,0.579834,22.851563,25.195313,-4.101563
3152353766,-0.450928,-0.191895,0.863037,1.716614,1.091003,0.808716,22.851563,25.195313,-4.101563
3155393768,-0.446777,-0.194336,0.861084,1.747131,1.228333,0.816345,22.851563,25.195313,-4.101563
3158313565,-0.450684,-0.190674,0.866211,1.716614,0.999451,0.640869,22.851563,25.195313,-4.101563
3161313773,-0.451904,-0.192139,0.861572,1.335144,1.457214,0.724792,22.851563,24.462891,-4.101563
3164372237,-0.449951,-0.194580,0.870850,1.861572,1.251221,0.885010,22.851563,24.462891,-4.101563
3167393368,-0.447754,-0.190430,0.864502,1.556396,1.068115,0.671387,22.851563,24.462891,-4.101563
3170338191,-0.444580,-0.191650,0.859863,1.350403,1.281738,0.778198,22.851563,24.462891,-4.101563
3173394193,-0.450928,-0.196533,0.867920,1.419067,1.174927,0.358582,22.851563,24.462891,-4.101563
3176334093,-0.446045,-0.190918,0.873779,1.548767,1.014709,0.549316,22.851563,24.462891,-4.101563
3178826813,-0.453613,-0.189941,0.870117,1.373291,0.968933,0.587463,22.851563,24.462891,-4.101563
3181327328,-0.453613,-0.192139,0.865723,1.266479,0.938416,0.495911,22.924805,24.682617,-4.028320
3183881176,-0.456787,-0.192627,0.867432,1.441956,0.465393,0.587463,22.924805,24.682617,-4.028320
3186416152,-0.454346,-0.187988,0.859131,1.007080,0.747681,0.473022,22.924805,24.682617,-4.028320
3189389693,-0.448975,-0.194336,0.864746,1.060486,0.846863,0.343323,22.924805,24.682617,-4.028320
3191897183,-0.451904,-0.192383,0.865967,0.976563,0.686646,0.350952,22.924805,24.682617,-4.028320
3194890416,-0.448975,-0.188232,0.863770,1.205444,0.518799,0.503540,22.924805,24.682617,-4.028320
3197387649,-0.449219,-0.190186,0.868164,0.839233,0.648499,0.381470,22.924805,24.682617,-4.028320
3199920984,-0.449951,-0.198242,0.872070,0.999451,0.579834,0.274658,22.924805,24.682617,-4.028320
3202896986,-0.448242,-0.194824,0.864258,0.831604,0.793457,0.633240,22.924805,24.975586,-4.614258
3206429297,-0.450684,-0.194580,0.869141,0.946045,0.450134,0.411987,22.924805,24.975586,-4.614258
3209421300,-0.450684,-0.195801,0.865479,0.999451,0.495911,0.564575,22.924805,24.975586,-4.614258
3211918943,-0.454102,-0.197021,0.872559,0.900269,0.267029,0.373840,22.924805,24.975586,-4.614258
3214419868,-0.450928,-0.197510,0.872070,0.984192,0.717163,0.297546,22.924805,24.975586,-4.614258
3217018434,-0.452148,-0.196777,0.864502,0.991821,0.495911,0.305176,22.924805,24.975586,-4.614258
3219977206,-0.452881,-0.197021,0.866455,1.129150,0.404358,0.442505,22.924805,24.975586,-4.614258
3222974541,-0.453857,-0.191406,0.872070,0.801086,0.572205,0.350952,23.291016,24.316406,-4.394531
3226022339,-0.453369,-0.197266,0.872070,0.923157,0.297546,0.259399,23.291016,24.316406,-4.394531
3229068495,-0.453857,-0.197998,0.864990,0.480652,0.411987,0.244141,23.291016,24.316406,-4.394531
3232057626,-0.454102,-0.196045,0.864746,0.801086,0.282288,0.526428,23.291016,24.316406,-4.394531
3235025013,-0.452881,-0.197754,0.859863,0.526428,0.205994,0.358582,23.291016,24.316406,-4.394531
3238588913,-0.449219,-0.198730,0.861572,0.930786,0.328064,0.167847,23.291016,24.316406,-4.394531
3241607582,-0.448975,-0.200195,0.860840,0.663757,0.350952,0.434875,23.071289,24.096680,-3.735352
3244582354,-0.448486,-0.196777,0.851074,0.297546,0.015259,0.709534,23.071289,24.096680,-3.735352
3247580100,-0.446045,-0.199707,0.856689,0.648499,0.137329,0.129700,23.071289,24.096680,-3.735352
3250644718,-0.443604,-0.201660,0.854492,0.389099,0.015259,0.267029,23.071289,24.096680,-3.735352
3253539490,-0.442627,-0.197266,0.854248,0.572205,0.068665,0.244141,23.071289,25.268555,-4.467773
3256165953,-0.440186,-0.198242,0.851074,0.595093,0.083923,0.328064,23.071289,25.268555,-4.467773
3259097648,-0.444824,-0.199707,0.859863,0.282288,-0.015259,0.381470,23.071289,25.268555,-4.467773
3262173753,-0.441162,-0.205566,0.854736,0.534058,-0.152588,0.183105,23.071289,25.122070,-4.321289
3265175191,-0.439209,-0.202637,0.861328,0.518799,-0.137329,0.511169,23.071289,25.122070,-4.321289
3268095809,-0.442383,-0.209229,0.868652,0.656128,0.137329,0.198364,23.071289,25.122070,-4.321289
3270616016,-0.438721,-0.209473,0.862061,1.174927,-0.099182,0.465393,22.851563,25.048828,-3.955078
3273617865,-0.441650,-0.210938,0.857666,0.808716,-0.053406,0.488281,22.851563,25.048828,-3.955078
3276129867,-0.441162,-0.211914,0.869629,1.335144,0.038147,0.343323,22.851563,25.048828,-3.955078
3278714074,-0.443604,-0.208252,0.869385,1.296997,0.389099,0.358582,22.851563,25.048828,-3.955078
3281678590,-0.440186,-0.213623,0.874023,1.510620,0.045776,0.396729,23.657227,24.682617,-4.028320
3284677977,-0.446289,-0.217041,0.874756,1.213074,0.389099,0.732422,23.657227,24.682617,-4.028320
3287736441,-0.446777,-0.214600,0.870117,1.914978,0.320435,0.488281,23.657227,24.682617,-4.028320
3290696033,-0.449219,-0.218262,0.871094,1.754761,0.114441,0.701904,23.291016,24.609375,-4.248047
3293655625,-0.446045,-0.217529,0.870361,1.823425,0.114441,0.663757,23.291016,24.609375,-4.248047
3296674704,-0.446533,-0.212402,0.871338,2.212524,0.282288,0.442505,23.291016,24.609375,-4.248047
3299702399,-0.448242,-0.213623,0.880371,2.243042,0.007629,0.976563,23.291016,24.609375,-4.248047
3302723120,-0.445313,-0.212891,0.868408,2.273560,0.152588,0.839233,23.071289,24.536133,-3.735352
3305752456,-0.443115,-0.213379,0.868408,2.182007,0.305176,1.068115,23.071289,24.536133,-3.735352
3308793279,-0.443848,-0.210938,0.885010,2.464294,0.366211,1.304626,23.071289,24.536133,-3.735352
3311760255,-0.441895,-0.211426,0.871094,2.586365,0.564575,1.220703,23.583984,24.462891,-4.248047
3314768258,-0.441406,-0.207031,0.871826,2.418518,0.320435,0.968933,23.583984,24.462891,-4.248047
3318264056,-0.438721,-0.208740,0.878906,2.861023,0.602722,1.152039,23.583984,24.462891,-4.248047
3321304468,-0.434814,-0.204346,0.878906,2.578735,0.434875,1.251221,23.437500,24.316406,-4.101563
3324268984,-0.436768,-0.205566,0.868164,2.784729,0.801086,1.525879,23.437500,24.316406,-4.101563
3327352883,-0.434082,-0.201416,0.875732,2.624512,0.785828,1.411438,23.437500,24.316406,-4.101563
3330353912,-0.435303,-0.202637,0.880371,2.349854,0.770569,1.625061,22.119141,24.316406,-4.101563
3333410735,-0.433350,-0.202881,0.872314,2.410889,1.312256,1.472473,22.119141,24.902344,-4.541016
3336332173,-0.439697,-0.201416,0.878662,2.395630,1.144409,1.686096,22.119141,24.902344,-4.541016
3339830432,-0.438477,-0.195068,0.878662,2.174377,1.251221,1.678467,22.119141,24.902344,-4.541016
3342814640,-0.440674,-0.189453,0.879395,2.265930,1.152039,1.449585,22.119141,24.902344,-4.541016
3345816488,-0.436768,-0.192871,0.877686,2.067566,1.647949,1.655579,22.119141,24.902344,-4.541016
3348810132,-0.440186,-0.188965,0.875000,1.899719,1.579285,1.602173,22.119141,24.902344,-4.541016
3351813211,-0.440186,-0.191162,0.877930,1.701355,1.548767,1.396179,23.217773,25.268555,-4.467773
3354818342,-0.441895,-0.184814,0.875732,2.075195,1.869202,1.251221,23.217773,25.268555,-4.467773
3357318447,-0.444580,-0.186768,0.867432,1.457214,1.884460,1.205444,23.217773,25.268555,-4.467773
3359809936,-0.444824,-0.187256,0.876709,1.686096,1.800537,1.144409,23.217773,25.268555,-4.467773
3362362553,-0.443359,-0.185303,0.876221,1.487732,1.815796,0.930786,23.217773,25.268555,-4.467773
3365328299,-0.447998,-0.186279,0.867432,1.922607,1.701355,0.976563,23.217773,25.268555,-4.467773
3367826353,-0.446289,-0.190674,0.869385,1.266479,1.846313,0.801086,23.217773,25.268555,-4.467773
3370366662,-0.445313,-0.189941,0.865479,1.655579,1.838684,0.656128,23.071289,24.682617,-4.028320
3373496511,-0.447510,-0.189697,0.866699,1.609802,1.937866,0.686646,23.071289,24.682617,-4.028320
3376410565,-0.445313,-0.192383,0.861816,1.434326,1.907349,0.434875,23.071289,24.682617,-4.028320
3379887901,-0.447510,-0.192627,0.863770,1.983643,1.930237,0.442505,23.071289,24.682617,-4.028320
3382934878,-0.446289,-0.190918,0.865967,1.708984,1.846313,0.259399,23.071289,24.682617,-4.028320
3385936316,-0.452881,-0.188477,0.864746,1.632690,1.899719,0.602722,23.071289,24.682617,-4.028320
3388962780,-0.450928,-0.194092,0.864258,1.548767,1.632690,0.556946,23.071289,24.682617,-4.028320
3391889962,-0.451660,-0.201904,0.859863,1.533508,1.800537,0.373840,22.851563,24.316406,-4.101563
3394925862,-0.450928,-0.197998,0.857178,1.502991,1.792908,0.518799,22.851563,24.316406,-4.101563
3397409967,-0.454102,-0.198975,0.855957,1.335144,1.899719,0.602722,22.851563,24.316406,-4.101563
3399910892,-0.452148,-0.195801,0.854980,1.205444,1.266479,0.511169,22.851563,24.316406,-4.101563
3402501663,-0.453613,-0.198486,0.854004,1.472473,1.548767,0.648499,22.851563,24.316406,-4.101563
3405481358,-0.452637,-0.198730,0.857422,1.136780,1.380920,0.488281,22.851563,24.316406,-4.101563
3408448745,-0.455811,-0.196045,0.857178,1.274109,1.144409,0.549316,22.851563,24.316406,-4.101563
3410993157,-0.453369,-0.194092,0.859619,1.228333,1.243591,0.946045,22.631836,24.536133,-4.907227
3414247314,-0.451904,-0.195557,0.864258,1.213074,1.159668,0.617981,22.631836,24.536133,-4.907227
3417050598,-0.451172,-0.193604,0.861816,1.213074,0.999451,0.419617,22.631836,24.536133,-4.907227
3420017575,-0.455566,-0.199463,0.860107,0.846863,0.877380,0.701904,22.631836,24.536133,-4.907227
3423026398,-0.449707,-0.197998,0.859863,0.854492,0.823975,0.564575,22.631836,24.536133,-4.907227
3426523016,-0.450684,-0.196533,0.859863,1.045227,0.801086,0.465393,22.631836,24.536133,-4.907227
3429492454,-0.451416,-0.198242,0.861328,0.968933,0.732422,0.427246,22.631836,24.536133,-4.907227
3432048764,-0.452148,-0.198242,0.869141,1.289368,0.541687,0.328064,22.998047,24.755859,-4.833984
3435023126,-0.450928,-0.200439,0.868164,0.991821,0.610352,0.183105,22.998047,24.755859,-4.833984
3437533897,-0.448242,-0.199463,0.868164,1.045227,0.724792,0.183105,22.998047,24.755859,-4.833984
3440555438,-0.449219,-0.205566,0.866455,1.205444,0.816345,0.228882,22.998047,24.755859,-4.833984
3443163030,-0.451172,-0.206299,0.870850,1.174927,0.808716,0.129700,22.998047,24.755859,-4.833984
3446057801,-0.445313,-0.206299,0.869385,0.961304,0.892639,0.450134,22.998047,24.755859,-4.833984
3448560778,-0.447754,-0.204346,0.869141,1.014709,0.953674,0.450134,22.998047,24.755859,-4.833984
3451056370,-0.447266,-0.204834,0.876465,1.007080,0.846863,0.167847,23.071289,25.415039,-4.760742
3453726731,-0.448486,-0.201660,0.873291,1.060486,0.938416,0.488281,23.071289,25.415039,-4.760742
3456613297,-0.449951,-0.203613,0.860596,1.335144,0.801086,0.183105,23.071289,25.415039,-4.760742
3459666018,-0.450439,-0.199707,0.874023,1.068115,0.900269,0.381470,23.071289,25.415039,-4.760742
3462576789,-0.452637,-0.202393,0.862305,1.014709,0.679016,0.175476,23.071289,25.415039,-4.760742
3465609817,-0.452148,-0.199707,0.863770,1.014709,1.045227,0.328064,23.071289,25.415039,-4.760742
3468631769,-0.454834,-0.202393,0.855469,1.411438,0.816345,0.396729,23.071289,25.415039,-4.760742
3471668899,-0.457764,-0.200439,0.867188,1.243591,0.885010,0.617981,22.705078,24.462891,-4.833984
3474704799,-0.460205,-0.198975,0.865234,1.007080,0.686646,0.328064,22.705078,24.462891,-4.833984
3477704186,-0.455078,-0.202148,0.861084,0.961304,0.869751,0.488281,22.705078,24.462891,-4.833984
3481178240,-0.458496,-0.201904,0.854736,1.075745,0.663757,0.495911,22.705078,24.462891,-4.833984
3484170243,-0.459473,-0.204346,0.860107,1.037598,0.610352,0.663757,22.705078,24.462891,-4.833984
3487216810,-0.452881,-0.205566,0.851563,0.762939,0.312805,0.205994,22.705078,24.462891,-4.833984
3490166145,-0.453613,-0.208252,0.856689,0.846863,0.236511,0.350952,23.291016,25.048828,-4.101563
3492759788,-0.454590,-0.212891,0.860596,1.121521,0.068665,0.595093,23.291016,25.048828,-4.101563
3495671381,-0.452881,-0.208984,0.858643,1.228333,0.053406,0.701904,23.291016,25.048828,-4.101563
3498170665,-0.454102,-0.211426,0.865234,0.946045,0.045776,0.595093,23.291016,25.048828,-4.101563
3500714667,-0.450928,-0.210693,0.864746,1.258850,0.053406,0.503540,23.291016,25.048828,-4.101563
3503784208,-0.447754,-0.207764,0.865479,1.205444,-0.076294,1.052856,23.291016,25.048828,-4.101563
3506760620,-0.447998,-0.208984,0.866699,1.319885,0.175476,0.846863,23.291016,25.048828,-4.101563
3509727187,-0.446533,-0.208252,0.871582,1.289368,0.076294,0.740051,23.071289,25.122070,-4.467773
3512757754,-0.442139,-0.209961,0.864746,1.556396,0.160217,0.785828,23.071289,25.122070,-4.467773
3515734577,-0.441406,-0.209961,0.868408,1.495361,0.343323,0.869751,23.071289,25.122070,-4.467773
3518232220,-0.443604,-0.205078,0.877197,1.609802,0.396729,1.091003,23.071289,25.122070,-4.467773
3520811093,-0.441406,-0.206055,0.873291,1.502991,0.190735,0.869751,23.071289,25.122070,-4.467773
3523746070,-0.441162,-0.205811,0.877197,1.762390,0.274658,1.060486,23.071289,25.122070,-4.467773
3526290072,-0.437988,-0.205811,0.870361,1.594543,0.610352,0.938416,23.071289,25.122070,-4.467773
3529262382,-0.438965,-0.207275,0.876465,1.815796,0.282288,1.052856,23.071289,25.122070,-4.467773
3532404949,-0.440918,-0.203125,0.880859,1.937866,0.740051,1.274109,22.778320,24.829102,-4.321289
3535321464,-0.437256,-0.198486,0.875977,1.808167,0.679016,0.946045,22.778320,24.829102,-4.321289
3538404954,-0.438477,-0.201904,0.875732,2.151489,1.235962,0.930786,22.778320,24.829102,-4.321289
3541865470,-0.439209,-0.199219,0.874512,1.853943,0.831604,1.136780,22.778320,24.829102,-4.321289
3544916139,-0.437500,-0.195801,0.871826,1.930237,1.258850,1.213074,22.778320,24.829102,-4.321289
3547832654,-0.441162,-0.195068,0.873291,1.861572,1.121521,1.045227,22.778320,24.829102,-4.321289
3550837375,-0.441406,-0.191162,0.873291,1.647949,1.091003,1.197815,23.291016,24.609375,-4.394531
3553836762,-0.445068,-0.191162,0.866455,1.663208,1.449585,0.946045,23.291016,24.609375,-4.394531
3556934200,-0.445557,-0.191650,0.865234,1.525879,0.968933,1.281738,23.291016,24.609375,-4.394531
3559837587,-0.448486,-0.191406,0.869385,1.754761,1.152039,1.037598,23.291016,24.609375,-4.394531
3562432461,-0.448486,-0.193115,0.863770,1.434326,1.258850,1.152039,23.291016,24.609375,-4.394531
3565383848,-0.452881,-0.191406,0.867432,0.991821,1.129150,0.785828,23.291016,24.609375,-4.394531
3568382004,-0.448730,-0.190918,0.872314,1.358032,0.930786,1.014709,23.291016,24.609375,-4.394531
3571491340,-0.454346,-0.195801,0.866699,0.984192,1.167297,0.602722,23.657227,24.975586,-4.614258
3574390625,-0.450928,-0.191895,0.867432,0.900269,0.846863,0.793457,23.657227,24.975586,-4.614258
3576946934,-0.455566,-0.197266,0.860596,0.938416,1.174927,0.663757,23.657227,24.975586,-4.614258
3579889296,-0.450684,-0.195801,0.866455,0.785828,0.885010,0.701904,23.657227,24.975586,-4.614258
3582445606,-0.448975,-0.191162,0.863281,0.991821,0.816345,0.755310,23.657227,24.975586,-4.614258
3585444582,-0.447510,-0.194580,0.864014,0.976563,0.740051,0.518799,23.657227,24.975586,-4.614258
3588458739,-0.450684,-0.198730,0.865967,0.778198,0.839233,0.625610,23.657227,24.975586,-4.614258
3591563562,-0.447754,-0.200439,0.854980,0.816345,0.648499,0.549316,23.510742,24.682617,-4.321289
3594481308,-0.448486,-0.193115,0.864258,0.610352,0.442505,0.572205,23.510742,24.682617,-4.321289
3597463874,-0.445068,-0.195068,0.862549,0.793457,0.625610,0.480652,23.510742,24.682617,-4.321289
