
Run: 1 Realtime: 0 Accel sens: 2 Gyro sens: 250

Time Captured,Accel X,Accel Y,Accel Z,Gyro X,Gyro Y,Gyro Z,Magn X,Magn Y,Magn Z
2964515,-0.458008,-0.200684,0.868164,2.052307,0.404358,0.953674,22.705078,24.755859,-4.101563
5990569,-0.455811,-0.200684,0.864502,1.907349,0.328064,0.846863,22.705078,24.755859,-4.101563
8976007,-0.455078,-0.197021,0.860840,1.884460,0.587463,0.968933,22.705078,24.755859,-4.101563
11952009,-0.459473,-0.196045,0.862305,2.182007,0.556946,0.877380,22.705078,24.755859,-4.101563
14917755,-0.459473,-0.195068,0.866455,2.059937,0.373840,0.915527,22.705078,24.755859,-4.101563
17446578,-0.454590,-0.195068,0.858154,2.189636,0.259399,0.915527,22.851563,24.755859,-4.101563
19975401,-0.456787,-0.195557,0.857178,2.441406,0.358582,0.656128,22.851563,24.755859,-4.541016
22499710,-0.455078,-0.190186,0.865234,2.380371,0.076294,0.793457,22.851563,24.755859,-4.541016
25019097,-0.457031,-0.193359,0.852539,2.761841,0.175476,1.129150,22.851563,24.755859,-4.541016
27489663,-0.458496,-0.191650,0.861328,2.532959,0.083923,0.907898,22.851563,24.755859,-4.541016
29992639,-0.453125,-0.192627,0.866699,2.426147,0.289917,1.152039,22.851563,24.755859,-4.541016
32509565,-0.450928,-0.190430,0.860840,2.700806,0.022888,0.907898,22.851563,24.755859,-4.541016
35513054,-0.452637,-0.188477,0.865967,2.510071,-0.122070,1.045227,22.851563,24.755859,-4.541016
38057056,-0.453369,-0.192139,0.867188,2.380371,-0.030518,0.854492,23.071289,24.389648,-4.028320
40526392,-0.454346,-0.187744,0.868408,2.830505,0.022888,1.091003,23.071289,24.389648,-4.028320
42996958,-0.450928,-0.187256,0.863037,2.502441,-0.152588,1.022339,23.071289,24.389648,-4.028320
45578293,-0.449951,-0.187012,0.868164,2.548218,-0.106812,1.136780,23.071289,24.389648,-4.028320
48620757,-0.448730,-0.186523,0.874023,2.426147,-0.205994,1.167297,23.071289,24.389648,-4.028320
51574606,-0.447266,-0.186768,0.870361,2.616882,0.045776,1.228333,23.071289,24.389648,-4.028320
54083736,-0.448242,-0.188965,0.877686,2.464294,0.381470,1.281738,23.071289,24.389648,-4.028320
57088457,-0.447266,-0.186768,0.873047,2.555847,0.053406,1.075745,23.071289,24.389648,-4.028320
60073074,-0.448242,-0.188965,0.879150,2.227783,0.320435,1.220703,22.631836,25.415039,-4.321289
62615435,-0.446533,-0.189697,0.876953,2.395630,0.419617,1.335144,22.631836,25.415039,-4.321289
65604156,-0.447266,-0.186768,0.878418,2.471924,0.228882,1.174927,22.631836,25.415039,-4.321289
68571133,-0.449707,-0.192383,0.875732,2.769470,0.694275,1.205444,22.631836,25.415039,-4.321289
71075340,-0.451904,-0.184814,0.882080,2.624512,0.480652,1.159668,22.631836,25.415039,-4.321289
73625086,-0.448486,-0.187744,0.871338,2.876282,0.770569,1.197815,22.631836,25.415039,-4.321289
76150216,-0.451172,-0.187012,0.875732,2.708435,0.976563,1.167297,22.631836,25.415039,-4.321289
79131962,-0.447754,-0.187744,0.869141,3.082275,1.159668,1.159668,22.924805,25.708008,-4.174805
81614015,-0.447998,-0.186523,0.881836,2.738953,0.953674,1.022339,22.924805,25.708008,-4.174805
84116171,-0.447998,-0.186035,0.872559,2.952576,1.136780,1.121521,22.924805,25.708008,-4.174805
86664686,-0.451416,-0.190674,0.872314,3.158569,1.106262,1.213074,22.924805,25.708008,-4.174805
89710022,-0.451416,-0.195313,0.876709,3.097534,1.350403,0.938416,22.924805,25.708008,-4.174805
92658947,-0.452881,-0.189941,0.868896,3.158569,1.350403,0.999451,22.924805,25.708008,-4.174805
95685411,-0.453613,-0.191650,0.862549,3.265381,1.358032,1.136780,22.924805,25.708008,-4.174805
98214234,-0.458740,-0.192871,0.865234,2.975464,1.411438,1.304626,23.510742,24.389648,-4.321289
101755570,-0.460449,-0.187988,0.872803,3.196716,1.594543,1.518250,23.510742,24.389648,-4.321289
104782034,-0.457275,-0.182129,0.859375,3.273010,1.342773,1.373291,23.510742,24.389648,-4.321289
107787575,-0.457275,-0.182129,0.857178,3.479004,1.373291,1.091003,23.510742,24.389648,-4.321289
110706552,-0.461426,-0.183105,0.852783,3.196716,1.266479,1.190186,23.510742,24.389648,-4.321289
113730554,-0.460449,-0.182373,0.852051,3.051758,1.594543,1.052856,23.510742,24.389648,-4.321289
116295069,-0.465576,-0.180176,0.847412,3.349304,0.968933,0.778198,23.510742,24.389648,-4.321289
119303072,-0.461670,-0.181396,0.854736,3.364563,1.243591,0.984192,22.778320,25.122070,-4.321289
122229843,-0.467773,-0.179932,0.850342,3.334045,0.885010,0.694275,22.778320,25.122070,-4.321289
125753949,-0.464844,-0.180664,0.853027,3.295898,0.968933,0.839233,22.778320,25.122070,-4.321289
128355797,-0.461914,-0.175781,0.852295,3.242493,0.717163,0.648499,22.778320,25.122070,-4.321289
131837236,-0.465576,-0.181885,0.856934,3.326416,0.213623,0.640869,22.778320,25.122070,-4.321289
134828828,-0.458252,-0.184082,0.853027,3.448486,0.152588,0.663757,22.778320,25.122070,-4.321289
137377343,-0.460205,-0.183838,0.863281,3.303528,0.503540,0.625610,22.924805,24.682617,-4.321289
140345551,-0.460449,-0.184814,0.850830,3.295898,0.083923,0.549316,22.924805,24.682617,-4.321289
143289553,-0.457520,-0.184326,0.856934,3.349304,0.251770,0.869751,22.924805,24.682617,-4.321289
145788837,-0.457520,-0.184814,0.856445,3.044128,0.045776,0.923157,22.924805,24.682617,-4.321289
148318070,-0.456787,-0.182617,0.863525,3.356934,0.091553,1.091003,22.924805,24.682617,-4.321289
150791098,-0.452637,-0.182861,0.866699,2.899170,0.068665,0.839233,22.924805,24.682617,-4.321289
153308843,-0.453613,-0.184814,0.864746,2.967834,0.228882,1.022339,22.924805,24.682617,-4.321289
155815102,-0.454590,-0.183594,0.863037,2.876282,0.038147,0.999451,22.924805,24.682617,-4.321289
158316027,-0.454346,-0.182617,0.873779,3.150940,0.251770,0.968933,22.558594,24.755859,-4.248047
161329363,-0.450195,-0.184082,0.873779,3.036499,0.137329,1.129150,22.558594,24.755859,-4.248047
163829878,-0.447021,-0.184326,0.877686,3.227234,0.305176,1.113892,22.558594,24.755859,-4.248047
166406700,-0.449951,-0.184570,0.875977,3.173828,0.343323,1.052856,22.558594,24.755859,-4.248047
169426600,-0.451904,-0.185059,0.870850,3.288269,0.335693,1.037598,22.558594,24.755859,-4.248047
172414910,-0.449707,-0.182861,0.873291,3.135681,0.305176,1.007080,22.558594,24.755859,-4.248047
175403631,-0.453369,-0.185059,0.871582,3.189087,0.770569,0.953674,22.558594,24.755859,-4.248047
178433787,-0.449707,-0.185303,0.872559,3.440857,0.709534,0.907898,22.851563,24.609375,-4.248047
181389687,-0.451172,-0.183350,0.874756,3.410339,0.656128,0.846863,22.851563,24.609375,-4.248047
183890612,-0.449951,-0.187744,0.867676,3.349304,0.846863,0.892639,22.851563,24.609375,-4.248047
186451845,-0.452637,-0.182373,0.865479,3.364563,0.679016,1.136780,22.851563,24.609375,-4.248047
189456565,-0.455322,-0.183594,0.866455,3.257751,0.984192,0.885010,22.338867,24.682617,-4.174805
191964054,-0.459717,-0.180908,0.868896,3.448486,0.938416,1.075745,22.338867,24.682617,-4.174805
195066826,-0.457764,-0.182129,0.861572,3.387451,1.007080,1.159668,22.338867,24.682617,-4.174805
198061290,-0.453369,-0.181152,0.859863,3.349304,0.999451,0.740051,22.558594,25.048828,-3.955078
200973703,-0.461914,-0.182373,0.864014,3.166199,0.793457,0.984192,22.558594,25.048828,-3.955078
203975962,-0.456055,-0.182617,0.858643,3.364563,0.915527,1.007080,22.558594,25.048828,-3.955078
207029503,-0.456787,-0.182129,0.876465,2.983093,0.968933,0.953674,22.558594,25.048828,-3.955078
210048582,-0.455566,-0.182861,0.866211,3.105164,0.694275,0.740051,22.778320,25.415039,-4.174805
213072585,-0.461426,-0.183105,0.859619,3.021240,0.930786,1.014709,22.778320,25.415039,-4.174805
216042843,-0.460449,-0.178467,0.865234,2.975464,0.427246,0.839233,22.778320,25.415039,-4.174805
219059051,-0.460693,-0.183350,0.860596,2.952576,0.595093,0.915527,22.851563,24.755859,-3.808594
222198746,-0.459473,-0.181885,0.860107,2.960205,0.267029,0.930786,22.851563,24.755859,-3.808594
225109107,-0.457275,-0.186279,0.861328,2.868652,0.381470,0.953674,22.851563,24.755859,-3.808594
228071161,-0.458252,-0.182129,0.858887,3.097534,-0.038147,0.434875,22.192383,25.122070,-3.881836
231049215,-0.460449,-0.184326,0.865234,3.150940,0.457764,1.083374,22.192383,25.122070,-3.881836
234085935,-0.457520,-0.189209,0.857910,3.082275,0.205994,0.762939,22.192383,25.122070,-3.881836
237041015,-0.454834,-0.183105,0.865479,3.402710,0.366211,0.961304,22.851563,24.462891,-3.955078
239577632,-0.460693,-0.179688,0.856201,2.983093,0.358582,0.915527,22.851563,24.462891,-3.955078
242558147,-0.456299,-0.183838,0.865234,3.219604,0.030518,0.801086,22.851563,24.462891,-3.955078
245229739,-0.454834,-0.180908,0.860107,3.112793,-0.061035,0.968933,22.851563,24.462891,-3.955078
248082254,-0.456787,-0.183594,0.863770,3.005981,0.213623,1.014709,22.631836,25.122070,-5.200195
250714462,-0.458008,-0.180176,0.861084,3.303528,0.114441,0.862122,22.631836,25.122070,-5.200195
253634259,-0.461914,-0.179443,0.864502,3.044128,-0.083923,0.900269,22.631836,25.122070,-5.200195
256138466,-0.456055,-0.184082,0.868408,3.234863,0.015259,1.296997,22.558594,24.609375,-5.200195
258636519,-0.460449,-0.175781,0.862793,2.861023,-0.137329,0.801086,22.558594,24.609375,-3.955078
261230573,-0.461182,-0.175781,0.868408,2.929688,0.396729,1.411438,22.558594,24.609375,-3.955078
264138883,-0.460693,-0.176758,0.868652,2.799988,0.022888,1.029968,22.558594,24.609375,-3.955078
266645552,-0.459961,-0.179443,0.861816,2.830505,0.007629,1.174927,22.705078,24.462891,-5.126953
269183810,-0.458252,-0.173584,0.867432,2.975464,0.167847,1.281738,22.705078,24.462891,-5.126953
272193864,-0.459229,-0.175293,0.873047,2.761841,-0.068665,1.159668,22.705078,24.462891,-5.126953
275202687,-0.458252,-0.172363,0.871094,2.525330,-0.015259,1.319885,22.705078,24.462891,-5.126953
278207818,-0.455566,-0.170654,0.866699,2.433777,-0.091553,1.243591,22.705078,24.462891,-5.126953
281182179,-0.455078,-0.171875,0.876465,2.624512,-0.068665,0.999451,22.705078,24.462891,-5.126953
284206181,-0.454346,-0.173340,0.873291,1.968384,-0.122070,1.052856,22.705078,24.462891,-5.126953
287177671,-0.452148,-0.172363,0.874756,2.510071,0.053406,0.961304,22.924805,25.268555,-4.174805
289686801,-0.450684,-0.172607,0.873779,1.869202,0.083923,1.129150,22.924805,25.268555,-4.174805
292241060,-0.445801,-0.168213,0.877930,1.792908,0.076294,0.907898,22.924805,25.268555,-4.174805
295193267,-0.447754,-0.171143,0.882324,1.991272,0.404358,1.098633,22.924805,25.268555,-4.174805
297693782,-0.446777,-0.172852,0.883057,1.487732,0.244141,1.091003,22.924805,25.268555,-4.174805
300274707,-0.447998,-0.174805,0.881836,1.693726,0.564575,1.129150,22.924805,25.268555,-4.174805
303273684,-0.445313,-0.178223,0.888916,1.838684,0.549316,0.953674,22.924805,25.268555,-4.174805
306826508,-0.442139,-0.177490,0.879395,1.258850,0.724792,1.068115,22.924805,25.268555,-4.174805
309770920,-0.444336,-0.173096,0.879883,1.571655,0.823975,0.869751,23.071289,24.975586,-4.028320
312781384,-0.447266,-0.177490,0.882324,1.487732,1.159668,0.976563,23.071289,24.975586,-4.028320
315824259,-0.451416,-0.178223,0.874268,1.701355,0.862122,0.869751,23.071289,24.975586,-4.028320
318897082,-0.452148,-0.177246,0.874268,1.686096,0.984192,0.770569,23.071289,24.975586,-4.028320
321834110,-0.456543,-0.178711,0.878662,1.396179,0.801086,0.991821,23.071289,24.975586,-4.028320
324788369,-0.452637,-0.181885,0.872559,1.480103,1.129150,0.953674,23.071289,24.975586,-4.028320
328001089,-0.454590,-0.178955,0.861328,1.403809,1.274109,0.686646,22.192383,24.975586,-4.028320
330788373,-0.451904,-0.182861,0.866455,1.556396,0.930786,0.854492,22.192383,24.975586,-4.028320
333788171,-0.452393,-0.180420,0.861816,1.419067,0.885010,0.816345,22.192383,24.975586,-4.028320
336341609,-0.450195,-0.182861,0.863281,1.434326,0.846863,0.869751,22.192383,24.975586,-4.028320
338872072,-0.455322,-0.186279,0.869629,1.556396,0.701904,1.228333,22.192383,24.975586,-4.028320
341901408,-0.455078,-0.183594,0.865967,1.373291,0.961304,0.953674,22.192383,24.975586,-4.028320
344840077,-0.457520,-0.184326,0.866455,1.235962,0.778198,1.091003,22.192383,24.975586,-4.028320
347386541,-0.451660,-0.182861,0.864502,1.464844,0.511169,1.052856,23.144531,24.755859,-4.101563
349886235,-0.455078,-0.184570,0.866455,1.487732,0.816345,1.197815,23.144531,24.755859,-4.101563
352385519,-0.453613,-0.185059,0.866455,1.266479,0.549316,1.167297,23.144531,24.755859,-4.101563
355397214,-0.457031,-0.185547,0.874512,1.335144,0.495911,1.129150,23.144531,24.755859,-4.101563
358394960,-0.460205,-0.183594,0.875244,1.380920,0.679016,1.098633,23.144531,24.755859,-4.101563
361398040,-0.456787,-0.184570,0.870850,1.541138,0.579834,0.953674,23.144531,24.755859,-4.101563
364405632,-0.458496,-0.182617,0.869385,1.640320,0.320435,1.205444,23.144531,24.755859,-4.101563
367400916,-0.456787,-0.182129,0.873779,1.525879,0.221252,1.235962,22.631836,24.682617,-3.881836
370420816,-0.455322,-0.186279,0.871826,1.716614,0.511169,0.930786,22.631836,24.682617,-3.881836
373414870,-0.447754,-0.180176,0.866455,1.640320,0.305176,0.915527,22.631836,24.682617,-3.881836
376426565,-0.449219,-0.184082,0.866211,1.724243,0.267029,0.915527,22.631836,24.682617,-3.881836
379438260,-0.449951,-0.182617,0.867432,1.541138,0.366211,0.816345,22.631836,24.682617,-3.881836
382468416,-0.447754,-0.186035,0.864014,1.831055,0.389099,0.740051,22.631836,24.682617,-3.881836
385032931,-0.446533,-0.181641,0.863037,2.136230,0.442505,0.724792,22.631836,24.682617,-3.881836
388007702,-0.442383,-0.187012,0.866699,1.922607,0.473022,0.900269,22.631836,24.975586,-4.174805
391014474,-0.446777,-0.186523,0.867432,1.739502,0.389099,0.694275,22.631836,24.975586,-4.174805
393967092,-0.444092,-0.186279,0.862061,2.037048,0.587463,0.724792,22.631836,24.975586,-4.174805
396556633,-0.442871,-0.184570,0.867188,2.128601,0.617981,0.732422,22.631836,24.975586,-4.174805
400007712,-0.444824,-0.184082,0.862305,2.326965,0.663757,0.907898,22.631836,24.975586,-4.174805
403097766,-0.445068,-0.182129,0.864746,2.342224,0.663757,0.854492,22.631836,24.975586,-4.174805
406091410,-0.445557,-0.183594,0.862549,2.189636,1.129150,0.747681,22.412109,24.316406,-4.248047
409014899,-0.448975,-0.182373,0.867920,2.464294,0.732422,0.732422,22.412109,24.316406,-4.248047
412068440,-0.451904,-0.184082,0.857422,2.288818,0.663757,0.915527,22.412109,24.316406,-4.248047
415151930,-0.445068,-0.182129,0.870361,2.464294,1.022339,0.839233,22.412109,24.316406,-4.248047
418071727,-0.450684,-0.185303,0.864990,2.265930,1.075745,1.029968,22.412109,24.316406,-4.248047
420561986,-0.453369,-0.182373,0.879883,2.563477,0.770569,0.968933,22.412109,24.316406,-4.248047
423157680,-0.451904,-0.182373,0.871338,2.700806,0.991821,0.915527,22.412109,24.316406,-4.248047
426144349,-0.453857,-0.179688,0.864258,3.089905,0.991821,0.831604,22.851563,24.902344,-4.248047
429121993,-0.457031,-0.180664,0.868164,2.655029,0.885010,0.778198,22.851563,24.902344,-4.248047
432230508,-0.458740,-0.177979,0.877441,2.769470,0.885010,0.862122,22.851563,24.902344,-4.248047
435150305,-0.456787,-0.176758,0.876221,2.624512,0.831604,0.747681,22.851563,24.902344,-4.248047
438192359,-0.461426,-0.177734,0.875244,2.937317,0.808716,0.717163,22.851563,24.902344,-4.248047
441198310,-0.457031,-0.172607,0.873047,2.990723,0.900269,0.289917,22.851563,24.902344,-4.248047
444205902,-0.458252,-0.175293,0.866699,2.586365,1.129150,0.564575,22.851563,24.902344,-4.248047
447118315,-0.460205,-0.176025,0.876709,2.700806,0.885010,0.595093,22.998047,25.634766,-3.955078
450120164,-0.455811,-0.179443,0.868896,3.112793,1.144409,0.503540,22.998047,25.634766,-3.955078
452622730,-0.455811,-0.177979,0.869629,2.319336,0.946045,0.358582,22.998047,25.634766,-3.955078
455192988,-0.452881,-0.178711,0.863525,2.639771,0.625610,0.541687,22.998047,25.634766,-3.955078
458202222,-0.453369,-0.179932,0.867432,2.647400,1.159668,0.564575,22.998047,25.634766,-3.955078
461212275,-0.454590,-0.181396,0.874023,2.799988,0.953674,0.686646,22.998047,25.634766,-3.955078
464213714,-0.456299,-0.177002,0.864014,2.502441,0.968933,0.564575,22.998047,25.634766,-3.955078
467164691,-0.449951,-0.177246,0.866699,2.601624,1.190186,0.701904,22.924805,25.122070,-4.174805
470243667,-0.457275,-0.178711,0.867188,2.288818,0.823975,0.846863,22.924805,25.122070,-4.174805
473161003,-0.453857,-0.180176,0.864502,2.418518,1.327515,0.816345,22.924805,25.122070,-4.174805
475660697,-0.456299,-0.180664,0.868164,2.639771,1.060486,0.968933,22.924805,25.122070,-4.174805
478217007,-0.455566,-0.177734,0.868164,2.159119,1.258850,0.907898,22.924805,25.122070,-4.174805
481218035,-0.457520,-0.179932,0.866943,2.494812,1.213074,0.877380,22.924805,25.122070,-4.174805
483712807,-0.456055,-0.177979,0.863525,2.189636,1.113892,0.785828,22.924805,25.122070,-4.174805
486304809,-0.457031,-0.177002,0.864746,2.090454,1.060486,0.900269,22.558594,24.902344,-3.515625
489355068,-0.456055,-0.175781,0.871826,2.319336,1.274109,1.060486,22.558594,24.902344,-3.515625
492385224,-0.460693,-0.173584,0.860107,2.021790,1.373291,0.885010,22.558594,24.902344,-3.515625
495357944,-0.457275,-0.176270,0.864990,1.838684,1.365662,0.923157,22.558594,24.902344,-3.515625
498345434,-0.456055,-0.170654,0.865479,1.953125,1.586914,0.801086,22.558594,24.902344,-3.515625
501348513,-0.456787,-0.171875,0.873535,1.708984,1.426697,0.778198,22.558594,24.902344,-3.515625
504270362,-0.456543,-0.169678,0.867188,2.044678,1.235962,0.717163,22.558594,24.902344,-3.515625
506770467,-0.455811,-0.171875,0.870117,1.953125,1.304626,0.885010,22.778320,24.682617,-4.614258
509369443,-0.456055,-0.171143,0.870117,1.495361,1.525879,0.701904,22.778320,24.682617,-4.614258
512418881,-0.455811,-0.174316,0.865967,1.487732,1.342773,0.671387,22.778320,24.682617,-4.614258
515869961,-0.455811,-0.174072,0.873291,1.373291,1.502991,0.740051,22.778320,24.682617,-4.614258
518892323,-0.454102,-0.175537,0.869141,1.312256,0.976563,0.518799,22.778320,24.682617,-4.614258
521846171,-0.458008,-0.177002,0.875488,1.182556,1.510620,0.457764,22.778320,24.682617,-4.614258
524478789,-0.454346,-0.177979,0.865723,1.396179,1.388550,0.549316,22.778320,24.682617,-4.614258
527473663,-0.457031,-0.177246,0.865723,1.251221,1.319885,0.709534,23.071289,24.682617,-3.881836
530429973,-0.457275,-0.181396,0.868408,1.350403,1.647949,0.419617,23.071289,24.682617,-3.881836
533450694,-0.457520,-0.181885,0.878418,1.441956,1.548767,0.556946,23.071289,24.682617,-3.881836
536495209,-0.457275,-0.180176,0.873779,1.266479,1.358032,0.816345,22.558594,24.755859,-4.248047
539495006,-0.460693,-0.177002,0.866699,1.350403,1.403809,0.679016,22.558594,24.755859,-4.248047
542468957,-0.464600,-0.173584,0.868652,1.235962,1.731873,0.709534,22.558594,24.755859,-4.248047
545528652,-0.464844,-0.175537,0.868164,1.281738,1.533508,0.831604,22.192383,25.122070,-4.174805
548986706,-0.465088,-0.177246,0.870605,0.907898,1.342773,0.823975,22.192383,25.122070,-4.174805
552007427,-0.461914,-0.170898,0.857178,0.633240,1.457214,0.854492,22.192383,25.122070,-4.174805
555032660,-0.469727,-0.169189,0.857178,0.701904,1.106262,0.823975,22.192383,25.122070,-4.174805
558001688,-0.466309,-0.174561,0.860840,0.534058,1.419067,0.541687,23.217773,24.975586,-4.028320
561021998,-0.469238,-0.164063,0.866699,0.732422,1.205444,0.648499,23.217773,24.975586,-4.028320
563970514,-0.469727,-0.164551,0.862305,0.495911,1.152039,0.274658,23.217773,24.975586,-4.028320
566467336,-0.468506,-0.160889,0.859619,0.549316,1.121521,0.396729,22.851563,24.902344,-3.808594
568985082,-0.472412,-0.166016,0.852783,0.152588,0.900269,0.167847,22.851563,24.902344,-3.808594
571974212,-0.468262,-0.165039,0.861572,0.053406,0.541687,0.099182,22.851563,24.902344,-3.808594
574983446,-0.468750,-0.168457,0.863037,0.198364,0.808716,0.236511,22.851563,24.902344,-3.808594
578015653,-0.470459,-0.165527,0.859619,-0.198364,0.549316,-0.045776,22.338867,25.561523,-3.735352
581120887,-0.469238,-0.170654,0.853027,-0.175476,0.289917,-0.144958,22.338867,25.561523,-3.735352
584030838,-0.466797,-0.174561,0.850342,-0.205994,0.396729,-0.198364,22.338867,25.561523,-3.735352
586537096,-0.465820,-0.176514,0.855469,-0.091553,0.419617,-0.144958,22.778320,24.682617,-4.321289
588992893,-0.465088,-0.179443,0.854492,-0.411987,-0.007629,-0.022888,22.778320,24.682617,-4.321289
591534434,-0.464844,-0.179199,0.859619,-0.289917,0.114441,-0.030518,22.778320,24.682617,-4.321289
594035769,-0.464844,-0.181396,0.859131,-0.129700,0.015259,-0.106812,22.778320,24.682617,-4.321289
596531771,-0.462402,-0.185791,0.857666,-0.564575,0.015259,-0.053406,23.217773,25.561523,-3.881836
599118850,-0.459229,-0.188477,0.859619,-0.457764,-0.236511,-0.038147,23.217773,25.561523,-3.881836
602105109,-0.461426,-0.185059,0.862305,-0.556946,-0.297546,-0.190735,23.217773,25.561523,-3.881836
604690547,-0.458984,-0.185303,0.861328,-0.480652,-0.381470,0.221252,23.217773,25.561523,-3.881836
607685421,-0.455322,-0.190674,0.865967,-0.373840,-0.259399,0.083923,23.217773,25.561523,-3.881836
610696706,-0.458252,-0.192139,0.858887,-0.267029,-0.205994,0.289917,23.217773,25.561523,-3.881836
613614041,-0.458252,-0.191406,0.869141,-0.213623,-0.137329,-0.076294,23.217773,25.561523,-3.881836
617105326,-0.458008,-0.193359,0.865723,-0.106812,-0.366211,0.221252,22.265625,24.609375,-4.394531
620155996,-0.451172,-0.190674,0.873291,0.183105,0.083923,0.053406,22.265625,24.609375,-4.394531
623111895,-0.450439,-0.194580,0.867188,0.183105,-0.122070,0.068665,22.265625,24.609375,-4.394531
625698154,-0.451904,-0.197754,0.874512,0.358582,-0.007629,-0.129700,22.265625,24.609375,-4.394531
628701233,-0.447266,-0.191162,0.867432,0.396729,-0.221252,-0.236511,22.265625,24.609375,-4.394531
631658364,-0.448730,-0.196533,0.877686,0.587463,0.526428,0.106812,22.265625,24.609375,-4.394531
634709443,-0.445068,-0.196533,0.873291,0.511169,0.305176,-0.083923,22.265625,24.609375,-4.394531
637657959,-0.444336,-0.199707,0.875488,0.846863,0.282288,0.030518,22.705078,24.316406,-4.101563
640741859,-0.448975,-0.204346,0.872803,0.869751,0.312805,0.106812,22.705078,24.316406,-4.101563
643763400,-0.448486,-0.198242,0.881836,0.854492,0.602722,-0.007629,22.705078,24.316406,-4.101563
646722581,-0.446533,-0.202148,0.873291,0.854492,0.457764,0.167847,22.705078,24.316406,-4.101563
649785558,-0.449463,-0.201416,0.872803,1.487732,0.511169,0.427246,22.705078,24.316406,-4.101563
652702484,-0.447998,-0.195068,0.869385,1.350403,0.793457,0.228882,22.705078,24.316406,-4.101563
655241973,-0.449463,-0.196533,0.872314,1.899719,1.052856,0.236511,22.119141,24.462891,-4.248047
657750283,-0.446777,-0.194336,0.875000,1.754761,1.167297,0.473022,22.119141,24.462891,-4.248047
660796439,-0.449707,-0.193359,0.870117,1.754761,1.159668,0.297546,22.119141,24.462891,-4.248047
663841365,-0.448486,-0.188965,0.871582,2.113342,1.609802,0.358582,22.119141,24.462891,-4.248047
666844034,-0.447266,-0.187988,0.867920,2.136230,1.190186,0.564575,22.119141,24.462891,-4.248047
669770805,-0.447510,-0.190186,0.870361,1.655579,1.785278,0.709534,22.119141,24.462891,-4.248047
672767321,-0.451904,-0.179932,0.869385,2.273560,1.487732,0.572205,22.119141,24.462891,-4.248047
675864349,-0.449951,-0.182373,0.866211,2.082825,1.243591,0.396729,22.998047,24.609375,-4.101563
678816967,-0.450684,-0.180420,0.864014,2.082825,1.464844,0.724792,22.998047,24.609375,-4.101563
681786405,-0.451904,-0.177246,0.867676,1.762390,1.647949,0.297546,22.998047,24.609375,-4.101563
684814920,-0.455322,-0.177002,0.869873,1.754761,1.663208,0.534058,22.998047,24.609375,-4.101563
687347025,-0.458008,-0.177002,0.868652,1.686096,1.510620,0.488281,22.998047,24.609375,-4.101563
690315233,-0.460693,-0.170166,0.871582,1.693726,1.663208,0.572205,22.998047,24.609375,-4.101563
693321594,-0.459717,-0.172363,0.867920,1.579285,1.487732,0.183105,22.998047,24.609375,-4.101563
696352571,-0.463379,-0.166992,0.870850,1.617432,1.327515,0.526428,22.998047,24.902344,-4.833984
699309701,-0.462158,-0.166748,0.862793,1.266479,1.518250,0.396729,22.998047,24.902344,-4.833984
701815550,-0.460449,-0.168213,0.864014,1.380920,1.556396,0.495911,22.998047,24.902344,-4.833984
704345193,-0.462646,-0.166992,0.856445,0.946045,1.251221,0.328064,22.998047,24.902344,-4.833984
707860273,-0.464600,-0.169189,0.865234,0.732422,1.335144,0.648499,22.998047,24.902344,-4.833984
710366941,-0.460205,-0.169189,0.862305,0.617981,1.113892,0.175476,22.998047,24.902344,-4.833984
712851046,-0.466064,-0.168213,0.861084,0.724792,1.190186,0.213623,22.998047,24.902344,-4.833984
715400381,-0.459473,-0.166016,0.857910,0.541687,1.052856,0.022888,22.778320,25.122070,-4.614258
718412897,-0.457275,-0.163574,0.860596,0.427246,0.762939,0.152588,22.778320,25.122070,-4.614258
721401207,-0.458252,-0.172119,0.861816,0.366211,0.984192,-0.183105,22.778320,25.122070,-4.614258
724438338,-0.456055,-0.173340,0.855713,0.396729,0.885010,0.083923,22.778320,25.122070,-4.614258
727478750,-0.456543,-0.177002,0.861084,0.228882,0.579834,0.129700,22.778320,25.122070,-4.614258
730446548,-0.456055,-0.178223,0.858643,0.114441,0.862122,0.091553,22.778320,25.122070,-4.614258
733491063,-0.456543,-0.173584,0.861572,-0.137329,0.495911,0.038147,22.778320,25.122070,-4.614258
736521629,-0.457520,-0.179199,0.857422,-0.061035,0.762939,-0.183105,22.705078,24.609375,-4.248047
739443068,-0.457275,-0.180664,0.859863,-0.068665,0.633240,-0.312805,22.705078,24.609375,-4.248047
742501532,-0.457275,-0.184326,0.874268,-0.007629,0.488281,0.015259,22.705078,24.609375,-4.248047
745510765,-0.453369,-0.187012,0.856445,0.205994,0.854492,-0.137329,22.705078,24.609375,-4.248047
748556101,-0.456543,-0.181152,0.866211,-0.167847,0.450134,-0.045776,22.705078,24.609375,-4.248047
751557129,-0.453125,-0.190674,0.871826,0.381470,0.839233,-0.099182,22.705078,24.609375,-4.248047
754558157,-0.455322,-0.187012,0.867188,-0.007629,0.625610,-0.221252,22.924805,25.415039,-4.028320
758064211,-0.456055,-0.189453,0.862793,0.328064,0.755310,-0.038147,22.924805,25.415039,-4.028320
761002880,-0.456299,-0.190918,0.858398,0.259399,0.564575,-0.274658,22.924805,25.415039,-4.028320
763975190,-0.464355,-0.186035,0.866943,0.137329,0.808716,-0.030518,22.924805,25.415039,-4.028320
766480218,-0.462158,-0.190674,0.861816,0.198364,0.480652,-0.038147,22.924805,25.415039,-4.028320
769061554,-0.458496,-0.192139,0.865967,0.099182,0.640869,0.015259,22.924805,25.415039,-4.028320
772057248,-0.461914,-0.193604,0.863037,0.236511,0.648499,-0.045776,22.924805,25.415039,-4.028320
775118584,-0.455322,-0.197754,0.862793,0.358582,0.411987,0.427246,22.119141,25.048828,-3.955078
778106894,-0.453857,-0.202148,0.866455,0.564575,0.770569,0.251770,22.119141,25.048828,-3.955078
781033256,-0.459717,-0.203125,0.862305,0.411987,0.549316,0.274658,22.119141,25.048828,-3.955078
783532950,-0.457764,-0.205078,0.861572,0.297546,0.701904,0.106812,22.119141,25.048828,-3.955078
786068747,-0.457031,-0.200195,0.868164,1.121521,0.396729,0.282288,22.119141,25.048828,-3.955078
789121878,-0.456787,-0.198975,0.863770,1.068115,0.785828,0.152588,22.119141,25.048828,-3.955078
792518804,-0.456299,-0.202148,0.863281,1.037598,0.450134,0.633240,22.119141,25.048828,-3.955078
795061985,-0.459717,-0.201660,0.860352,1.464844,0.862122,0.282288,22.265625,25.634766,-4.248047
798142603,-0.456543,-0.201660,0.863525,1.197815,0.633240,0.663757,22.265625,25.634766,-4.248047
801108349,-0.460205,-0.201904,0.861816,1.594543,0.503540,0.663757,22.265625,25.634766,-4.248047
804112249,-0.455078,-0.204590,0.860352,1.441956,0.602722,0.724792,22.265625,25.634766,-4.248047
807106713,-0.451172,-0.201172,0.859375,1.838684,0.350952,0.793457,22.558594,25.048828,-3.955078
810686613,-0.456787,-0.202881,0.866699,1.998901,0.663757,0.724792,22.558594,25.048828,-3.955078
813657693,-0.455811,-0.203857,0.865234,2.265930,0.579834,0.907898,22.558594,25.048828,-3.955078
816161900,-0.455322,-0.201660,0.871826,2.288818,0.534058,1.319885,22.485352,24.829102,-3.881836
818655030,-0.453369,-0.200195,0.872070,2.235413,0.366211,0.938416,22.485352,24.829102,-3.881836
821161289,-0.450684,-0.199951,0.865723,2.395630,0.526428,0.968933,22.485352,24.829102,-3.881836
824242727,-0.452637,-0.195801,0.865967,2.571106,0.228882,1.251221,22.998047,24.829102,-3.881836
827239242,-0.453857,-0.194824,0.861816,2.540588,0.457764,1.014709,22.998047,24.755859,-3.955078
830254219,-0.451904,-0.194336,0.866211,2.159119,0.778198,1.441956,22.998047,24.755859,-3.955078
833167042,-0.453857,-0.194092,0.873535,2.655029,0.671387,1.358032,22.998047,24.755859,-3.955078
835702429,-0.451416,-0.192139,0.870605,2.532959,0.862122,1.441956,23.144531,24.169922,-4.541016
838726431,-0.449463,-0.187744,0.867188,2.311707,0.930786,1.304626,23.144531,24.169922,-4.541016
841692177,-0.448486,-0.188477,0.871582,2.609253,0.617981,1.251221,23.144531,24.169922,-4.541016
844781000,-0.447021,-0.181396,0.868164,2.525330,1.045227,1.373291,22.998047,24.755859,-4.833984
847796387,-0.448975,-0.180420,0.867920,2.571106,0.946045,1.319885,22.998047,24.755859,-4.833984
850750236,-0.452637,-0.179932,0.868408,2.471924,1.022339,1.426697,22.998047,24.755859,-4.833984
853721315,-0.453369,-0.179932,0.875977,2.777100,1.121521,1.312256,22.998047,24.755859,-4.833984
856294856,-0.455322,-0.179199,0.869141,2.685547,1.121521,1.144409,23.217773,24.536133,-4.321289
859268807,-0.453369,-0.176270,0.860596,2.777100,1.396179,1.144409,23.217773,24.536133,-4.321289
862282143,-0.456055,-0.174805,0.865967,2.441406,1.190186,1.182556,23.217773,24.536133,-4.321289
865356197,-0.456055,-0.172607,0.871826,2.174377,0.915527,1.136780,22.851563,24.316406,-4.980469
868309635,-0.454590,-0.175293,0.864502,2.105713,1.129150,1.213074,22.851563,24.316406,-4.980469
871818561,-0.453369,-0.168213,0.863770,1.869202,1.258850,1.182556,22.851563,24.316406,-4.980469
874812615,-0.459717,-0.171143,0.859863,1.541138,1.251221,1.235962,22.851563,24.316406,-4.980469
877916207,-0.453125,-0.174805,0.867432,1.625061,1.159668,1.007080,22.851563,24.316406,-4.980469
880789235,-0.461426,-0.172363,0.863770,1.419067,1.190186,1.060486,22.851563,24.316406,-4.980469
883794776,-0.458252,-0.171143,0.861816,1.396179,1.022339,0.938416,22.851563,24.316406,-4.980469
886373650,-0.457520,-0.169434,0.866943,1.380920,1.029968,0.923157,22.338867,25.122070,-3.881836
889425550,-0.460938,-0.172607,0.864258,1.182556,1.235962,0.808716,22.338867,25.122070,-3.881836
892374065,-0.459229,-0.170898,0.869629,1.235962,0.915527,0.869751,22.338867,25.122070,-3.881836
895393144,-0.457275,-0.177734,0.858154,1.029968,0.999451,0.686646,22.338867,25.122070,-3.881836
898335096,-0.461182,-0.175781,0.863525,0.999451,0.938416,0.686646,22.338867,25.122070,-3.881836
900833559,-0.456543,-0.178467,0.865479,0.900269,1.068115,0.640869,22.338867,25.122070,-3.881836
903380433,-0.456299,-0.181885,0.865234,1.014709,0.862122,0.610352,23.071289,25.122070,-4.174805
905837871,-0.455811,-0.183594,0.863281,0.579834,0.724792,0.839233,23.071289,25.122070,-4.174805
908381053,-0.456787,-0.183838,0.860840,0.663757,0.816345,0.389099,23.071289,25.122070,-4.174805
910917260,-0.454834,-0.185059,0.863770,0.984192,0.694275,0.701904,23.071289,25.122070,-4.174805
913891211,-0.451416,-0.178223,0.868164,0.717163,1.045227,0.701904,23.071289,25.122070,-4.174805
916394187,-0.449951,-0.186279,0.872803,0.541687,0.770569,0.434875,23.071289,25.122070,-4.174805
918893471,-0.448486,-0.186035,0.862793,0.541687,1.106262,0.885010,23.071289,25.122070,-4.174805
921443217,-0.451416,-0.184814,0.867920,0.679016,0.366211,0.717163,23.071289,25.122070,-4.174805
923938809,-0.451660,-0.187744,0.872559,0.686646,1.213074,0.556946,22.338867,25.122070,-4.028320
926947632,-0.453369,-0.187744,0.872070,0.556946,0.930786,0.671387,22.338867,25.122070,-4.028320
929485890,-0.447754,-0.188477,0.863525,0.747681,1.159668,0.389099,22.338867,25.122070,-4.028320
932490201,-0.447510,-0.184570,0.876953,0.907898,0.885010,0.411987,22.338867,25.122070,-4.028320
935001792,-0.453125,-0.188232,0.877930,0.839233,1.335144,0.572205,22.338867,25.122070,-4.028320
938082000,-0.454590,-0.187256,0.873779,1.037598,1.182556,0.663757,22.338867,25.122070,-4.028320
940992772,-0.454346,-0.186279,0.874512,1.014709,1.342773,0.549316,22.338867,25.122070,-4.028320
943992979,-0.456543,-0.185547,0.873779,0.709534,1.632690,0.152588,23.071289,25.415039,-4.028320
946977187,-0.454834,-0.182617,0.884277,1.075745,1.358032,0.236511,23.071289,25.415039,-4.028320
949559753,-0.451660,-0.187988,0.876221,1.205444,1.693726,0.282288,23.071289,25.415039,-4.028320
952507448,-0.456787,-0.182861,0.874023,0.999451,1.678467,0.160217,23.071289,25.415039,-4.028320
955604066,-0.457275,-0.185303,0.870605,1.258850,1.747131,0.190735,23.071289,25.415039,-4.028320
959051863,-0.456299,-0.187500,0.867188,1.083374,1.686096,0.045776,23.071289,25.415039,-4.028320
962582533,-0.459717,-0.185303,0.862305,1.091003,1.655579,0.099182,23.071289,25.415039,-4.028320
965643048,-0.458984,-0.187012,0.861572,1.060486,1.693726,0.099182,22.705078,24.609375,-3.955078
968638333,-0.460693,-0.186768,0.856689,1.251221,1.686096,0.221252,22.705078,24.609375,-3.955078
972079977,-0.466553,-0.190674,0.857178,0.846863,1.754761,0.007629,22.705078,24.609375,-3.955078
975069928,-0.467041,-0.188965,0.853760,0.885010,1.693726,0.022888,22.705078,24.609375,-3.955078
978187059,-0.468018,-0.187988,0.857910,0.930786,1.441956,0.198364,22.705078,24.609375,-3.955078
981052702,-0.466553,-0.191406,0.850586,0.976563,1.487732,0.289917,22.705078,24.609375,-3.955078
984132910,-0.471436,-0.194824,0.842773,1.075745,1.045227,0.137329,22.338867,25.415039,-4.174805
987186861,-0.470459,-0.192139,0.858154,0.946045,0.892639,0.419617,22.338867,25.415039,-4.174805
990675274,-0.468018,-0.195313,0.849365,0.808716,1.190186,0.373840,22.338867,25.415039,-4.174805
993693123,-0.469238,-0.192871,0.851074,0.801086,0.892639,0.595093,22.338867,25.415039,-4.174805
997193843,-0.468262,-0.191406,0.849609,1.029968,1.068115,0.541687,22.338867,25.415039,-4.174805
1000246154,-0.468750,-0.194580,0.853760,0.839233,0.617981,0.259399,22.338867,25.415039,-4.174805
1003161848,-0.467041,-0.190186,0.853027,1.174927,0.526428,0.862122,22.558594,25.195313,-3.808594
1006173543,-0.464844,-0.196533,0.852051,0.762939,0.312805,0.434875,22.558594,25.195313,-3.808594
1009168007,-0.465332,-0.194336,0.853027,1.007080,0.198364,0.640869,22.558594,25.195313,-3.808594
1012162471,-0.461670,-0.194336,0.861816,0.991821,0.045776,0.862122,22.558594,25.195313,-3.808594
1014713037,-0.454834,-0.192871,0.866455,1.037598,0.129700,0.770569,22.558594,25.195313,-3.808594
1017638578,-0.458984,-0.190674,0.870850,1.228333,0.114441,0.976563,22.558594,25.195313,-3.808594
1020188324,-0.456055,-0.194092,0.864746,1.037598,0.297546,0.648499,22.558594,25.195313,-3.808594
1022685146,-0.457031,-0.195313,0.870605,1.213074,0.167847,0.770569,22.998047,25.341797,-3.808594
1025228328,-0.458252,-0.192627,0.876221,1.228333,0.213623,0.923157,22.998047,25.341797,-3.808594
1028239612,-0.461182,-0.192627,0.874756,1.335144,0.167847,0.778198,22.998047,25.341797,-3.808594
1031324333,-0.454834,-0.191650,0.865967,1.556396,0.122070,1.068115,22.998047,25.341797,-3.808594
1034272848,-0.456787,-0.192627,0.874023,1.281738,0.671387,0.686646,22.998047,25.341797,-3.808594
1037241466,-0.456543,-0.186279,0.872803,1.052856,0.556946,0.984192,22.998047,25.341797,-3.808594
1040245366,-0.456299,-0.189209,0.872559,1.274109,0.724792,0.953674,22.998047,25.341797,-3.808594
1043321881,-0.453857,-0.187744,0.870117,1.205444,0.869751,0.671387,22.851563,25.048828,-4.394531
1046863628,-0.456299,-0.183838,0.867920,1.396179,0.999451,0.801086,22.851563,25.048828,-4.394531
1049769886,-0.453613,-0.182617,0.867188,1.266479,0.930786,0.892639,22.851563,25.048828,-4.394531
1052784453,-0.456055,-0.182129,0.858643,1.464844,0.900269,0.755310,22.851563,25.048828,-4.394531
1055828148,-0.460205,-0.183594,0.865723,1.380920,1.029968,0.686646,22.851563,25.048828,-4.394531
1058811535,-0.457275,-0.182129,0.860352,1.274109,0.770569,0.526428,22.851563,25.048828,-4.394531
1061996358,-0.462158,-0.187500,0.861572,1.556396,0.953674,0.358582,22.851563,25.048828,-4.394531
1064840258,-0.458008,-0.184814,0.852051,1.502991,1.213074,0.511169,23.510742,24.682617,-4.028320
1067849901,-0.461182,-0.185059,0.858643,1.518250,0.839233,0.335693,23.510742,24.682617,-4.028320
1070806211,-0.464355,-0.181396,0.859375,1.403809,0.808716,0.328064,23.510742,24.682617,-4.028320
1073329290,-0.464111,-0.183838,0.857910,1.655579,0.816345,0.373840,23.510742,24.682617,-4.028320
1075877395,-0.460205,-0.185547,0.855957,1.365662,0.831604,0.450134,23.510742,24.682617,-4.028320
1078836167,-0.457031,-0.180664,0.852539,1.457214,0.778198,0.465393,23.510742,24.682617,-4.028320
1081951656,-0.458008,-0.183594,0.855713,0.984192,0.427246,0.289917,23.510742,24.682617,-4.028320
1084941197,-0.461182,-0.183350,0.851074,1.296997,0.587463,0.625610,22.119141,24.755859,-4.248047
1087895046,-0.462402,-0.189209,0.859619,1.091003,0.473022,0.274658,22.119141,24.755859,-4.248047
1091405613,-0.459717,-0.188477,0.868164,1.091003,0.335693,0.404358,22.119141,24.755859,-4.248047
1094478436,-0.461182,-0.185791,0.863770,1.144409,0.183105,0.534058,23.071289,24.682617,-4.907227
1097531977,-0.456299,-0.189941,0.863281,1.541138,0.282288,0.404358,23.071289,24.682617,-4.907227
1100472697,-0.457031,-0.188965,0.863281,0.953674,-0.038147,0.442505,23.071289,24.682617,-4.907227
1103390854,-0.454590,-0.189209,0.864014,1.396179,0.282288,0.305176,22.705078,25.488281,-3.955078
1105898753,-0.453125,-0.190918,0.863037,1.098633,0.122070,0.343323,22.705078,25.488281,-3.955078
1108904294,-0.455566,-0.197754,0.865723,1.396179,0.335693,0.305176,22.705078,25.488281,-3.955078
1111442142,-0.449463,-0.193604,0.862793,1.502991,0.160217,0.289917,22.705078,25.488281,-3.955078
1114492811,-0.447266,-0.190674,0.868164,1.113892,0.526428,0.579834,23.437500,24.755859,-4.101563
1117458968,-0.452637,-0.190674,0.871826,1.617432,0.366211,0.389099,23.437500,24.755859,-4.101563
1120424303,-0.452148,-0.187256,0.870117,1.365662,0.251770,0.709534,23.437500,24.755859,-4.101563
1123552511,-0.452393,-0.194336,0.863037,1.655579,0.579834,0.343323,22.851563,25.488281,-4.687500
1126470257,-0.447266,-0.190674,0.871826,1.663208,0.625610,0.419617,22.851563,25.488281,-4.687500
1129465542,-0.451172,-0.192871,0.866699,1.457214,0.747681,0.160217,22.851563,25.488281,-4.687500
1132017339,-0.449219,-0.194092,0.867432,1.480103,0.984192,0.350952,22.851563,25.488281,-4.687500
1134972828,-0.450684,-0.190674,0.871338,1.899719,0.968933,0.312805,22.045898,24.243164,-4.321289
1137464728,-0.453125,-0.187744,0.869629,1.579285,0.823975,0.350952,22.045898,24.243164,-4.321289
1140016935,-0.450928,-0.188232,0.867676,1.312256,1.052856,0.686646,22.045898,24.243164,-4.321289
1143039707,-0.454346,-0.186768,0.864258,1.556396,0.900269,0.366211,22.631836,24.536133,-4.907227
1146022273,-0.456787,-0.187988,0.865723,1.457214,1.029968,0.579834,22.631836,24.536133,-4.907227
1148530583,-0.458984,-0.188721,0.859375,1.411438,1.060486,0.473022,22.631836,24.536133,-4.907227
1151025764,-0.457764,-0.189209,0.861572,1.686096,0.923157,0.381470,22.631836,24.536133,-4.907227
1154103511,-0.457764,-0.183838,0.864502,1.617432,1.007080,0.167847,23.217773,24.389648,-4.174805
1157147205,-0.457031,-0.186523,0.867188,1.586914,0.770569,0.305176,23.217773,24.389648,-4.174805
1160079721,-0.459961,-0.183838,0.861328,1.464844,1.167297,0.205994,23.217773,24.389648,-4.174805
1162639312,-0.460938,-0.182617,0.864990,1.388550,0.831604,0.312805,22.631836,25.415039,-3.881836
1165668648,-0.463135,-0.179199,0.860596,1.426697,1.098633,0.450134,22.631836,25.415039,-3.881836
1169132856,-0.462891,-0.178955,0.863770,1.312256,0.724792,0.511169,22.631836,25.415039,-3.881836
1172110910,-0.466797,-0.184082,0.861816,1.335144,0.602722,0.221252,22.631836,25.415039,-3.881836
1175069682,-0.465820,-0.181885,0.856934,1.274109,0.839233,0.480652,22.705078,24.902344,-4.833984
1177632145,-0.466553,-0.182861,0.853271,1.281738,1.014709,0.236511,22.705078,24.902344,-4.833984
1180600763,-0.470459,-0.184570,0.856201,1.197815,0.862122,0.289917,22.705078,24.902344,-4.833984
1183102919,-0.467529,-0.182861,0.860596,0.976563,0.495911,0.419617,22.924805,24.975586,-4.174805
1185607126,-0.464355,-0.186279,0.857910,1.319885,0.602722,0.144958,22.924805,24.975586,-4.174805
1188154410,-0.467285,-0.178711,0.856445,0.885010,0.144958,0.198364,22.924805,24.975586,-4.174805
1191113182,-0.467529,-0.186523,0.848145,1.358032,0.396729,0.350952,22.924805,24.975586,-4.174805
1194159749,-0.463135,-0.188232,0.856201,0.915527,-0.007629,0.167847,23.437500,25.048828,-4.394531
1196692674,-0.464111,-0.189453,0.849854,0.930786,0.190735,0.251770,23.437500,25.048828,-4.394531
1200182318,-0.461670,-0.190674,0.868164,0.953674,0.083923,0.160217,23.437500,25.048828,-4.394531
1203194012,-0.462158,-0.191650,0.860840,0.617981,-0.183105,0.457764,23.437500,25.048828,-4.394531
1206194220,-0.464111,-0.193848,0.858398,0.785828,-0.114441,0.205994,23.437500,25.048828,-4.394531
1209200171,-0.457031,-0.193115,0.862305,0.656128,-0.434875,0.404358,23.437500,25.048828,-4.394531
1212195866,-0.456787,-0.191162,0.863281,0.656128,-0.221252,0.518799,22.705078,25.048828,-4.394531
1215289202,-0.459229,-0.193115,0.861084,0.610352,0.015259,0.488281,22.705078,24.755859,-4.541016
1218755461,-0.456543,-0.194824,0.866455,0.831604,-0.473022,0.549316,22.705078,24.755859,-4.541016
1221780694,-0.451172,-0.194824,0.865479,0.953674,-0.144958,0.755310,22.705078,24.755859,-4.541016
1224747261,-0.451660,-0.198975,0.875000,0.846863,-0.213623,0.450134,22.705078,24.755859,-4.541016
1227747468,-0.452881,-0.199707,0.870361,0.991821,-0.205994,0.640869,22.705078,24.755859,-4.541016
1230742753,-0.453613,-0.196777,0.867676,1.106262,0.068665,0.839233,22.705078,24.755859,-4.541016
1233286755,-0.451172,-0.195557,0.879150,0.892639,-0.213623,0.701904,22.778320,25.268555,-4.760742
1235786039,-0.450928,-0.195557,0.867432,1.441956,0.144958,0.694275,22.778320,25.268555,-4.760742
1238746862,-0.450195,-0.198975,0.876465,1.083374,0.427246,0.640869,22.778320,25.268555,-4.760742
1241290454,-0.454346,-0.199463,0.878906,1.464844,0.549316,0.747681,22.778320,25.268555,-4.760742
1244339072,-0.455811,-0.197998,0.873291,1.136780,0.488281,0.396729,22.778320,25.268555,-4.760742
1247392202,-0.450928,-0.191650,0.868408,1.388550,0.442505,0.740051,22.778320,25.268555,-4.760742
1250373949,-0.458984,-0.194580,0.873291,1.495361,0.724792,0.617981,22.778320,25.268555,-4.760742
1253339695,-0.453369,-0.191895,0.871582,1.251221,0.892639,0.671387,23.144531,25.048828,-4.394531
1255918979,-0.457275,-0.193848,0.866455,1.762390,0.640869,0.312805,23.144531,25.048828,-4.394531
1258879802,-0.456787,-0.195801,0.858398,1.625061,0.976563,0.617981,23.144531,25.048828,-4.394531
1262341958,-0.462646,-0.191406,0.866455,1.686096,0.907898,0.328064,23.144531,25.048828,-4.394531
1265418063,-0.456543,-0.195313,0.865479,1.716614,1.167297,0.587463,23.144531,25.048828,-4.394531
1268367809,-0.459473,-0.194824,0.860840,1.586914,0.740051,0.396729,23.144531,25.048828,-4.394531
1271431607,-0.460205,-0.198730,0.853760,1.815796,0.556946,0.549316,23.144531,25.048828,-4.394531
1274332943,-0.464355,-0.195313,0.851074,1.846313,0.823975,0.411987,22.924805,24.243164,-4.174805
1276885560,-0.461670,-0.193359,0.855713,1.976013,0.686646,0.518799,22.924805,24.243164,-4.174805
1279896024,-0.462402,-0.198486,0.851318,1.739502,0.503540,0.389099,22.924805,24.243164,-4.174805
1282881873,-0.459473,-0.196289,0.854980,1.876831,0.473022,0.534058,22.924805,24.243164,-4.174805
1285383618,-0.461426,-0.196289,0.852051,2.136230,0.343323,0.511169,22.924805,24.243164,-4.174805
1287885364,-0.464844,-0.196777,0.850830,1.914978,0.427246,0.801086,22.924805,24.243164,-4.174805
1290429776,-0.467041,-0.197021,0.854736,2.128601,0.328064,0.572205,22.924805,24.243164,-4.174805
1293398804,-0.462158,-0.197021,0.848877,2.273560,0.144958,0.778198,23.291016,24.755859,-3.955078
1296504448,-0.460449,-0.197266,0.851807,2.326965,0.404358,0.503540,23.291016,24.755859,-3.955078
1299428348,-0.458984,-0.196045,0.852783,2.288818,0.297546,0.770569,23.291016,24.755859,-3.955078
1302543837,-0.458252,-0.196533,0.854980,2.227783,-0.122070,0.495911,23.291016,24.755859,-3.955078
1305500148,-0.460938,-0.196045,0.863525,2.441406,0.167847,0.801086,23.291016,24.755859,-3.955078
1308433483,-0.458496,-0.195313,0.856201,2.120972,0.137329,0.846863,23.291016,24.755859,-3.955078
1311433281,-0.459229,-0.194092,0.867676,2.487183,0.137329,0.656128,23.291016,24.755859,-3.955078
1313934616,-0.456787,-0.189697,0.867188,2.639771,-0.152588,0.846863,23.437500,24.609375,-3.662109
1317023029,-0.456787,-0.192627,0.862793,2.403259,0.000000,0.816345,23.437500,24.609375,-3.662109
1320554519,-0.452393,-0.195068,0.864502,2.326965,0.030518,0.785828,23.437500,24.609375,-3.662109
1323602316,-0.453369,-0.190186,0.868652,2.410889,-0.061035,0.717163,23.437500,24.609375,-3.662109
1326581191,-0.455322,-0.190918,0.864746,2.243042,-0.167847,0.816345,23.437500,24.609375,-3.662109
1329526424,-0.451904,-0.189941,0.869385,2.090454,0.434875,0.930786,23.437500,24.609375,-3.662109
1332573401,-0.452148,-0.191162,0.861572,2.143860,0.129700,0.679016,22.558594,24.755859,-3.955078
1335528070,-0.451172,-0.190186,0.868896,2.220154,0.259399,0.762939,22.558594,24.755859,-3.955078
1338536482,-0.455322,-0.188721,0.872559,2.326965,0.480652,0.686646,22.558594,24.755859,-3.955078
1341033715,-0.452148,-0.188477,0.864990,2.250671,0.366211,0.587463,22.558594,24.755859,-3.955078
1344062231,-0.450195,-0.188232,0.873291,2.365112,0.465393,0.724792,22.558594,24.755859,-3.955078
1347133002,-0.453125,-0.185059,0.873779,2.120972,0.961304,0.839233,22.558594,24.755859,-3.955078
1350673928,-0.458252,-0.186035,0.872070,2.052307,0.617981,0.587463,22.558594,24.755859,-3.955078
1353674136,-0.459229,-0.190918,0.870361,2.120972,0.648499,0.717163,22.631836,25.122070,-4.614258
1357100600,-0.454834,-0.186768,0.871338,1.945496,0.709534,0.625610,22.631836,25.122070,-4.614258
1360191885,-0.455811,-0.184082,0.861328,1.640320,0.762939,0.839233,22.631836,25.122070,-4.614258
1363072708,-0.465576,-0.183105,0.867432,2.044678,0.411987,0.709534,22.631836,25.122070,-4.614258
1365622043,-0.464111,-0.180420,0.865723,1.724243,0.648499,0.556946,22.631836,25.122070,-4.614258
1368119276,-0.462646,-0.183105,0.865967,1.998901,0.564575,0.457764,22.631836,25.122070,-4.614258
1370673534,-0.462646,-0.184814,0.854492,1.907349,0.366211,0.434875,22.631836,25.122070,-4.614258
1373634357,-0.464600,-0.183105,0.858398,1.861572,0.434875,0.381470,22.998047,25.048828,-4.248047
1376672309,-0.460205,-0.184814,0.854736,1.510620,0.709534,0.625610,22.998047,25.048828,-4.248047
1379710260,-0.464111,-0.186768,0.861084,2.037048,0.442505,0.389099,22.998047,25.048828,-4.248047
1382628006,-0.458740,-0.187500,0.854492,1.502991,0.106812,0.350952,22.998047,25.048828,-4.248047
1385688931,-0.463867,-0.185547,0.854004,1.693726,0.473022,0.549316,22.998047,25.048828,-4.248047
1388764626,-0.466553,-0.185547,0.854248,1.548767,0.030518,0.411987,22.998047,25.048828,-4.248047
1391741859,-0.464111,-0.184326,0.858398,1.380920,0.099182,0.465393,23.217773,25.268555,-4.321289
1394693246,-0.466309,-0.190918,0.860107,1.411438,0.000000,0.587463,23.217773,25.268555,-4.321289
1397743916,-0.467773,-0.192383,0.860107,1.495361,-0.205994,0.396729,23.217773,25.268555,-4.321289
1400676021,-0.462646,-0.193359,0.864990,1.594543,-0.190735,0.732422,23.217773,25.268555,-4.321289
1403704946,-0.463867,-0.189941,0.864258,1.602173,-0.495911,0.251770,23.217773,25.268555,-4.321289
1406712128,-0.465576,-0.192627,0.858154,1.487732,-0.328064,0.350952,23.217773,25.268555,-4.321289
1409776336,-0.467041,-0.194580,0.857178,1.510620,-0.236511,0.221252,23.217773,25.268555,-4.321289
1412693671,-0.466309,-0.193115,0.855469,1.525879,-0.587463,0.190735,23.291016,24.755859,-4.833984
1415264340,-0.467041,-0.195313,0.862305,1.022339,-0.312805,0.297546,23.291016,24.755859,-4.833984
1418239522,-0.462158,-0.197266,0.857422,1.586914,-0.885010,0.488281,23.291016,24.755859,-4.833984
1420734704,-0.460205,-0.196045,0.855225,1.251221,-0.534058,0.457764,23.291016,24.755859,-4.833984
1423250808,-0.461182,-0.193359,0.860107,1.480103,-0.732422,0.221252,22.778320,25.122070,-4.321289
1425755016,-0.463135,-0.199951,0.852539,1.472473,-0.885010,0.106812,22.778320,25.122070,-4.321289
1428260453,-0.463623,-0.199219,0.854248,1.663208,-0.816345,0.373840,22.778320,25.122070,-4.321289
1430815122,-0.458008,-0.195801,0.854248,1.884460,-1.068115,0.274658,23.217773,24.682617,-4.174805
1433834612,-0.455811,-0.201904,0.848633,1.922607,-0.823975,0.274658,23.217773,24.682617,-4.174805
1436761384,-0.451904,-0.199463,0.860596,2.044678,-1.037598,0.686646,23.217773,24.682617,-4.174805
1439263539,-0.449463,-0.199951,0.849121,2.159119,-0.991821,0.450134,23.217773,24.682617,-4.174805
1442277285,-0.451416,-0.200439,0.850830,1.907349,-0.953674,0.358582,22.851563,24.755859,-4.687500
1445318519,-0.446045,-0.204102,0.856934,2.113342,-1.060486,0.572205,22.851563,24.755859,-4.687500
1447819034,-0.441406,-0.205811,0.858887,2.174377,-1.144409,0.518799,22.851563,24.755859,-4.687500
1450374933,-0.439209,-0.207275,0.860107,2.204895,-1.136780,0.740051,22.851563,24.755859,-4.687500
1453373089,-0.440918,-0.208496,0.858643,2.204895,-0.717163,0.839233,22.631836,25.268555,-4.174805
1455908476,-0.440430,-0.206299,0.858887,2.624512,-0.663757,0.724792,22.631836,25.268555,-4.174805
1458888991,-0.437256,-0.204102,0.861816,2.410889,-0.610352,0.839233,22.631836,25.268555,-4.174805
1462492687,-0.442627,-0.209473,0.865479,3.211975,-0.541687,1.319885,22.851563,24.609375,-4.541016
1465433407,-0.443115,-0.207764,0.870850,3.288269,-0.534058,1.106262,22.851563,24.609375,-4.541016
1468347461,-0.447998,-0.206543,0.875732,3.189087,-0.320435,1.289368,22.851563,24.609375,-4.541016
1470843873,-0.447998,-0.207764,0.874756,3.410339,-0.167847,1.243591,23.437500,24.755859,-4.541016
1473892491,-0.443604,-0.205078,0.879395,3.669739,0.015259,1.510620,23.437500,24.755859,-4.541016
1476411878,-0.448730,-0.204834,0.876709,3.547668,-0.144958,1.541138,23.437500,24.755859,-4.541016
1479905214,-0.446045,-0.202881,0.875488,4.013062,0.061035,1.968384,23.437500,24.755859,-4.541016
1482420088,-0.451416,-0.197021,0.880371,3.967285,0.190735,1.792908,22.998047,25.341797,-4.248047
1485478552,-0.453613,-0.197266,0.871582,3.753662,0.167847,1.678467,22.998047,25.341797,-4.248047
1488483682,-0.452393,-0.196045,0.873779,4.096985,0.328064,1.724243,22.998047,25.341797,-4.248047
1491492916,-0.458252,-0.191650,0.871826,4.043579,0.595093,1.739502,23.144531,24.902344,-4.394531
1494442662,-0.455078,-0.187012,0.868896,4.379272,0.175476,1.647949,23.144531,24.902344,-4.394531
1497487587,-0.456055,-0.185547,0.870361,4.257202,0.465393,1.411438,23.144531,24.902344,-4.394531
1500491077,-0.454346,-0.183838,0.864746,3.997803,0.465393,1.647949,23.144531,24.902344,-4.394531
1503527387,-0.454102,-0.182373,0.862549,4.295349,0.457764,1.678467,23.291016,25.195313,-4.248047
1506997339,-0.454834,-0.181152,0.867920,4.447937,0.503540,1.457214,23.291016,25.195313,-4.248047
1510043085,-0.455322,-0.177734,0.865479,3.898621,0.335693,1.815796,23.291016,25.195313,-4.248047
1513020318,-0.455078,-0.179688,0.864258,3.906250,0.305176,1.495361,23.291016,25.195313,-4.248047
1516039397,-0.456787,-0.179688,0.862305,3.417969,0.526428,1.808167,23.291016,25.195313,-4.248047
1519084323,-0.454346,-0.174072,0.863281,3.593445,0.190735,1.716614,23.291016,25.195313,-4.248047
1522016018,-0.452637,-0.173828,0.862793,3.181458,0.396729,1.594543,22.631836,25.122070,-4.174805
1525582790,-0.450439,-0.172852,0.874268,2.937317,0.259399,1.815796,22.631836,25.122070,-4.174805
1528518997,-0.450439,-0.176270,0.864258,2.975464,0.175476,1.853943,22.631836,25.122070,-4.174805
1531030179,-0.450684,-0.171875,0.865967,2.548218,0.442505,1.617432,22.631836,25.122070,-4.174805
1533533976,-0.446533,-0.172119,0.869873,2.708435,0.358582,1.647949,22.631836,25.122070,-4.174805
1536032850,-0.452881,-0.173096,0.872559,2.281189,0.228882,1.716614,22.631836,25.122070,-4.174805
1538537467,-0.452148,-0.175537,0.874512,2.632141,0.488281,1.495361,22.631836,25.122070,-4.174805
1541084341,-0.450928,-0.174072,0.873535,2.197266,0.404358,1.464844,22.338867,25.268555,-4.028320
1544087420,-0.444336,-0.176514,0.875488,2.265930,0.587463,1.327515,22.338867,25.268555,-4.028320
1547122910,-0.447266,-0.177002,0.870850,2.113342,0.617981,1.228333,22.338867,25.268555,-4.028320
1550164553,-0.447266,-0.178467,0.869873,2.212524,0.839233,1.228333,22.338867,25.268555,-4.028320
1553158607,-0.447021,-0.178467,0.863525,2.113342,0.831604,1.380920,22.338867,25.268555,-4.028320
1556144456,-0.445801,-0.175781,0.885010,2.105713,0.892639,1.274109,22.338867,25.268555,-4.028320
1559171740,-0.449219,-0.177246,0.875000,1.731873,1.075745,0.976563,22.338867,25.268555,-4.028320
1562213384,-0.453125,-0.181396,0.876709,2.120972,0.885010,1.029968,22.412109,24.902344,-4.394531
1565186104,-0.447754,-0.181152,0.868896,2.235413,1.113892,0.816345,22.412109,24.902344,-4.394531
1568230620,-0.451904,-0.183350,0.869629,2.128601,1.464844,1.045227,22.412109,24.902344,-4.394531
1571193084,-0.451660,-0.187744,0.871094,1.701355,1.342773,1.014709,22.412109,24.902344,-4.394531
1574185907,-0.454590,-0.182129,0.866943,1.853943,1.480103,0.831604,22.412109,24.902344,-4.394531
1577182012,-0.452637,-0.186523,0.866455,1.846313,1.449585,1.083374,22.412109,24.902344,-4.394531
1580180168,-0.453125,-0.184082,0.860107,1.708984,1.281738,0.862122,22.412109,24.902344,-4.394531
1582683555,-0.455811,-0.189941,0.863281,1.670837,1.571655,0.717163,22.705078,25.195313,-4.248047
1585198018,-0.454834,-0.189209,0.861084,1.693726,1.434326,0.923157,22.705078,25.195313,-4.248047
1587747354,-0.459229,-0.187744,0.850830,1.731873,1.487732,0.968933,22.705078,25.195313,-4.248047
1590697510,-0.463135,-0.188232,0.860107,1.907349,1.335144,0.862122,22.705078,25.195313,-4.248047
1593705512,-0.466309,-0.186768,0.864502,1.449585,1.167297,1.083374,22.705078,25.195313,-4.248047
1596206437,-0.464844,-0.185059,0.861816,1.686096,1.052856,1.037598,22.705078,25.195313,-4.248047
1599744902,-0.461182,-0.188965,0.856934,1.609802,1.083374,0.877380,22.705078,25.195313,-4.248047
1602711468,-0.466064,-0.188232,0.854980,1.670837,1.014709,1.022339,22.485352,25.268555,-4.467773
1605252599,-0.465332,-0.190430,0.862793,1.998901,0.984192,0.915527,22.485352,25.268555,-4.467773
1607758857,-0.467285,-0.191650,0.852783,1.632690,0.801086,1.045227,22.485352,25.268555,-4.467773
1610839475,-0.460938,-0.192139,0.847168,1.670837,0.488281,0.709534,22.485352,25.268555,-4.467773
1614313939,-0.466309,-0.189941,0.854980,1.960754,0.724792,0.740051,22.485352,25.268555,-4.467773
1617322352,-0.467529,-0.188232,0.855469,1.983643,0.259399,0.885010,22.485352,25.268555,-4.467773
1620266355,-0.460205,-0.189941,0.855469,1.998901,0.259399,0.900269,22.558594,24.169922,-4.467773
1623269434,-0.465332,-0.188477,0.853516,2.075195,0.251770,0.762939,22.558594,24.169922,-4.248047
1625816308,-0.461182,-0.195557,0.863281,2.395630,-0.022888,0.648499,22.558594,24.169922,-4.248047
1628314771,-0.461914,-0.197998,0.855713,2.120972,0.198364,0.610352,22.558594,24.169922,-4.248047
1631312107,-0.461182,-0.196777,0.865234,2.571106,-0.030518,0.648499,22.558594,24.169922,-4.248047
1633863084,-0.462646,-0.196777,0.870117,2.586365,0.198364,0.755310,22.558594,24.169922,-4.248047
1636903496,-0.458252,-0.194336,0.866211,2.349854,-0.061035,0.465393,22.558594,24.169922,-4.248047
1639888114,-0.459961,-0.192871,0.860352,2.746582,-0.122070,0.709534,22.558594,24.169922,-4.248047
1642850168,-0.451904,-0.197021,0.865234,2.616882,0.053406,0.923157,22.851563,24.609375,-4.394531
1645894273,-0.456787,-0.192383,0.866943,2.380371,-0.007629,0.900269,22.851563,24.609375,-4.394531
1648864942,-0.456543,-0.198975,0.864502,2.784729,-0.038147,0.907898,22.851563,24.609375,-4.394531
1651966483,-0.451416,-0.197266,0.872559,2.761841,0.137329,1.045227,22.851563,24.609375,-4.394531
1654871921,-0.451172,-0.194336,0.879150,2.502441,-0.030518,1.182556,22.851563,24.609375,-4.394531
1657372847,-0.451416,-0.195313,0.872070,2.937317,0.106812,0.961304,22.851563,24.609375,-4.394531
1660480541,-0.457275,-0.194824,0.869385,2.532959,-0.068665,1.190186,22.265625,25.195313,-4.248047
1663377364,-0.454102,-0.189453,0.867432,2.929688,0.061035,0.930786,22.265625,25.195313,-4.248047
1665877059,-0.450928,-0.190186,0.870361,2.708435,0.434875,1.159668,22.265625,25.195313,-4.248047
1668382086,-0.455322,-0.192383,0.869385,2.868652,0.541687,1.083374,22.265625,25.195313,-4.248047
1670919524,-0.452637,-0.188965,0.866699,2.899170,0.282288,1.075745,22.265625,25.195313,-4.248047
1673927527,-0.457031,-0.187256,0.869141,3.051758,0.289917,1.304626,22.265625,25.195313,-4.248047
1676428862,-0.457031,-0.192627,0.866211,3.150940,0.328064,1.106262,22.265625,25.195313,-4.248047
1678926916,-0.459229,-0.190674,0.868408,2.998352,0.419617,0.999451,22.265625,25.195313,-4.248047
1681471328,-0.458008,-0.188721,0.864502,2.906799,0.358582,1.228333,22.924805,24.829102,-4.174805
1684430510,-0.459961,-0.188965,0.860840,3.036499,0.312805,0.930786,22.924805,24.829102,-4.174805
1686931845,-0.457031,-0.190186,0.860596,2.937317,0.144958,1.213074,22.924805,24.829102,-4.174805
1689436052,-0.458252,-0.189697,0.863281,3.547668,0.473022,1.152039,22.924805,24.829102,-4.174805
1691978824,-0.459473,-0.190430,0.867676,2.983093,0.312805,1.052856,22.924805,24.829102,-4.174805
1694951134,-0.457520,-0.191406,0.863525,3.311157,0.541687,1.007080,22.924805,24.829102,-4.174805
1697486521,-0.454102,-0.190430,0.856689,2.998352,0.457764,1.060486,22.924805,24.829102,-4.174805
1699977599,-0.458008,-0.187744,0.864502,3.128052,0.381470,1.205444,22.998047,24.902344,-4.687500
1702492884,-0.458740,-0.188477,0.861084,3.013611,0.137329,1.205444,22.998047,24.902344,-4.687500
1705492271,-0.459961,-0.187988,0.864258,3.440857,0.198364,1.350403,22.998047,24.902344,-4.687500
1708500683,-0.457764,-0.185791,0.862305,3.143311,0.297546,1.327515,22.998047,24.902344,-4.687500
1711039352,-0.459229,-0.186523,0.865479,3.440857,-0.137329,1.243591,22.998047,24.902344,-4.687500
1713999765,-0.455322,-0.187500,0.854004,3.089905,0.205994,1.213074,22.998047,24.902344,-4.687500
1716496177,-0.453369,-0.181152,0.861084,3.410339,-0.045776,1.319885,22.998047,24.902344,-4.687500
1719040589,-0.455811,-0.180420,0.864746,3.311157,0.106812,1.808167,22.998047,24.902344,-4.687500
1721537412,-0.454834,-0.182129,0.861816,2.845764,0.068665,1.594543,23.144531,25.341797,-4.687500
1724541722,-0.457520,-0.183105,0.864746,2.914429,0.083923,1.571655,23.144531,25.341797,-4.687500
1727542340,-0.455811,-0.179199,0.863037,2.929688,0.228882,1.655579,23.144531,25.341797,-4.687500
1730067470,-0.456787,-0.178711,0.869385,2.868652,0.129700,1.510620,23.071289,25.268555,-3.881836
1732586857,-0.453125,-0.174561,0.870850,2.845764,-0.122070,1.518250,23.071289,25.268555,-3.881836
1735562859,-0.457275,-0.174805,0.872070,2.540588,0.137329,1.396179,23.071289,25.268555,-3.881836
1738110964,-0.456787,-0.176270,0.870361,2.861023,0.190735,1.472473,23.071289,25.268555,-3.881836
1741156300,-0.456543,-0.172852,0.870850,2.311707,0.366211,1.510620,21.899414,24.829102,-4.321289
1744208200,-0.460938,-0.171143,0.876221,2.510071,0.343323,1.380920,21.899414,24.829102,-4.321289
1747104202,-0.460205,-0.173096,0.870850,1.983643,0.175476,1.518250,21.899414,24.829102,-4.321289
1750132307,-0.461426,-0.173828,0.872070,2.128601,0.289917,1.235962,22.045898,24.829102,-4.028320
1753163284,-0.457764,-0.168945,0.876465,1.968384,0.358582,0.915527,22.045898,24.829102,-4.028320
1756147492,-0.459961,-0.167969,0.870850,2.174377,0.122070,1.007080,22.045898,24.829102,-4.028320
1759180110,-0.456787,-0.166504,0.866699,1.609802,0.335693,1.235962,22.045898,24.829102,-4.028320
1762195497,-0.454102,-0.172119,0.867188,1.960754,0.549316,0.755310,22.119141,25.341797,-3.662109
1765166986,-0.453369,-0.171875,0.870117,1.426697,0.122070,0.976563,22.119141,25.341797,-3.662109
1768199604,-0.449951,-0.173096,0.865479,1.632690,0.305176,0.961304,22.119141,25.341797,-3.662109
1771150171,-0.448975,-0.175293,0.860840,1.075745,0.411987,0.740051,22.412109,25.048828,-4.248047
1773644532,-0.452148,-0.177734,0.864990,1.487732,0.625610,0.862122,22.412109,25.048828,-4.248047
1776190175,-0.450684,-0.177979,0.868652,0.907898,0.564575,0.984192,22.412109,25.048828,-4.248047
1779206793,-0.446777,-0.181396,0.864746,1.289368,0.389099,0.877380,22.412109,25.048828,-4.248047
1781723718,-0.453857,-0.181152,0.862061,0.846863,0.411987,0.846863,22.485352,24.682617,-4.907227
1784720643,-0.453125,-0.184082,0.867676,1.083374,0.457764,0.740051,22.485352,24.682617,-4.907227
1787224440,-0.454346,-0.186279,0.860840,1.167297,0.350952,0.648499,22.485352,24.682617,-4.907227
1789724955,-0.455078,-0.185547,0.864502,1.213074,0.267029,0.488281,22.558594,25.341797,-4.541016
1792289060,-0.453857,-0.185303,0.870361,1.350403,0.526428,0.747681,22.558594,25.341797,-4.541016
1795311421,-0.455811,-0.187500,0.859131,1.388550,0.152588,0.549316,22.558594,25.341797,-4.541016
1798309578,-0.453857,-0.189697,0.864502,1.594543,0.251770,0.755310,22.558594,25.341797,-4.541016
1801235939,-0.452881,-0.193359,0.865723,1.327515,0.259399,0.541687,22.558594,25.341797,-4.541016
1803787736,-0.458496,-0.191895,0.869873,1.457214,0.488281,0.808716,22.558594,25.341797,-4.541016
1806848251,-0.456299,-0.197754,0.871338,1.350403,0.221252,0.762939,22.558594,25.341797,-4.541016
1809789792,-0.452148,-0.197754,0.872803,1.708984,0.213623,0.892639,22.631836,24.389648,-4.174805
1812801077,-0.454346,-0.196777,0.863281,1.731873,0.305176,0.755310,22.631836,24.389648,-4.174805
1815893592,-0.454102,-0.194824,0.867432,1.907349,-0.045776,0.869751,22.631836,24.389648,-4.174805
1818823646,-0.457764,-0.201904,0.877197,1.922607,0.259399,1.060486,22.631836,24.389648,-4.174805
1821327853,-0.454834,-0.198242,0.865723,2.151489,0.144958,1.014709,22.631836,24.389648,-4.174805
1824326009,-0.453857,-0.197266,0.869141,2.288818,0.373840,0.740051,22.631836,24.389648,-4.174805
1826823242,-0.457520,-0.198486,0.865723,2.525330,0.144958,1.045227,22.631836,24.389648,-4.174805
1829406218,-0.450684,-0.196045,0.871582,2.586365,0.198364,1.022339,23.291016,24.755859,-4.248047
1832352272,-0.451904,-0.199951,0.866699,2.616882,0.366211,1.068115,23.291016,24.755859,-4.248047
1835424275,-0.455322,-0.196533,0.863770,2.510071,0.205994,1.174927,23.291016,24.755859,-4.248047
1838476585,-0.452881,-0.195313,0.866455,2.784729,0.381470,1.144409,23.291016,24.755859,-4.248047
1841388998,-0.452881,-0.200195,0.867676,2.738953,0.106812,1.380920,23.291016,24.755859,-4.248047
1844971770,-0.454590,-0.195068,0.862549,3.013611,0.160217,1.274109,23.291016,24.755859,-4.248047
1847976900,-0.453613,-0.199463,0.858887,3.158569,0.747681,1.518250,23.291016,24.755859,-4.248047
1850981621,-0.453369,-0.195313,0.861328,3.189087,0.450134,1.388550,22.631836,24.389648,-4.174805
1853896905,-0.451660,-0.195801,0.862061,3.219604,0.457764,1.670837,22.631836,24.389648,-4.174805
1856923780,-0.451172,-0.190674,0.864502,3.120422,0.282288,1.594543,22.631836,24.389648,-4.174805
1859905526,-0.454102,-0.189453,0.860352,3.395081,0.488281,1.541138,22.631836,24.389648,-4.174805
1862483989,-0.450928,-0.184082,0.863037,3.295898,0.465393,1.571655,22.631836,24.389648,-4.174805
1865485428,-0.453857,-0.184570,0.862305,3.356934,0.434875,1.564026,22.631836,24.389648,-4.174805
1868451994,-0.453613,-0.185547,0.860596,3.730774,0.541687,1.609802,22.631836,24.389648,-4.174805
1871485843,-0.449463,-0.179688,0.859619,3.417969,0.350952,1.571655,22.778320,24.682617,-4.614258
1874531999,-0.454102,-0.179443,0.867432,3.425598,0.030518,1.411438,22.778320,24.682617,-4.614258
1878004002,-0.457031,-0.180420,0.864746,3.585815,0.381470,1.304626,22.778320,24.682617,-4.614258
1880996004,-0.453369,-0.182129,0.864258,3.349304,0.442505,1.564026,22.778320,24.682617,-4.614258
1883998263,-0.455566,-0.181641,0.867432,3.433228,0.282288,1.441956,22.778320,24.682617,-4.614258
1887080932,-0.452393,-0.180664,0.866211,3.349304,0.381470,1.365662,22.778320,24.682617,-4.614258
1890044627,-0.448242,-0.179199,0.866699,3.410339,0.076294,1.564026,23.291016,25.048828,-4.248047
1892989860,-0.455811,-0.178467,0.867676,3.273010,0.389099,1.472473,23.291016,25.048828,-4.248047
1896038068,-0.450928,-0.177979,0.865723,3.524780,0.457764,1.235962,23.291016,25.048828,-4.248047
1899537968,-0.454834,-0.178955,0.864258,3.395081,0.564575,1.495361,23.291016,25.048828,-4.248047
1902549253,-0.449463,-0.178711,0.873047,3.028870,0.518799,1.518250,23.291016,25.048828,-4.248047
1906106999,-0.454834,-0.175781,0.873779,3.379822,0.495911,1.426697,23.291016,25.048828,-4.248047
1909107207,-0.448730,-0.169922,0.870361,3.227234,0.633240,1.380920,22.778320,25.122070,-4.028320
1912105363,-0.453857,-0.172852,0.870850,3.082275,0.602722,1.281738,22.778320,25.122070,-4.028320
1915094084,-0.455078,-0.175293,0.872803,3.158569,0.434875,1.495361,22.778320,25.122070,-4.028320
1918092240,-0.456543,-0.171875,0.865479,2.891541,0.701904,1.251221,22.778320,25.122070,-4.028320
1920599319,-0.454102,-0.173096,0.866211,3.089905,0.732422,1.296997,22.778320,25.122070,-4.028320
1923618398,-0.457520,-0.168701,0.863525,2.784729,0.793457,1.426697,22.778320,25.122070,-4.028320
1926124657,-0.453857,-0.168457,0.867920,2.494812,0.518799,1.144409,22.778320,25.122070,-4.028320
1928618197,-0.456299,-0.169678,0.869629,2.693176,0.862122,1.029968,22.778320,24.975586,-3.588867
1931731636,-0.456299,-0.166748,0.865967,2.449036,0.854492,1.075745,22.778320,24.975586,-3.588867
1934633382,-0.458496,-0.167480,0.859619,2.342224,0.663757,0.946045,22.778320,24.975586,-3.588867
1937137999,-0.458252,-0.168213,0.862061,2.174377,0.663757,0.488281,22.778320,24.975586,-3.588867
1939679540,-0.457764,-0.170898,0.862061,2.159119,0.389099,0.755310,22.778320,24.975586,-3.588867
1942638722,-0.454590,-0.178223,0.859619,1.686096,0.679016,0.869751,22.778320,24.975586,-3.588867
1945138826,-0.461426,-0.174561,0.862793,1.846313,0.106812,0.572205,22.778320,24.975586,-3.588867
1948150111,-0.458496,-0.174561,0.858398,2.052307,0.480652,0.869751,22.778320,24.975586,-3.588867
1951149088,-0.460449,-0.182617,0.864746,2.174377,0.335693,0.663757,23.217773,24.829102,-4.321289
1954143962,-0.458252,-0.181396,0.867188,1.731873,0.007629,0.968933,23.217773,24.829102,-4.321289
1956639143,-0.456299,-0.181152,0.861328,2.014160,0.152588,0.984192,23.217773,24.829102,-4.321289
1959145812,-0.457031,-0.182861,0.874023,2.258301,0.144958,0.679016,23.217773,24.829102,-4.321289
1961728378,-0.457275,-0.181396,0.870117,2.014160,0.320435,0.724792,23.217773,24.829102,-4.321289
1964690432,-0.453613,-0.186279,0.866211,2.197266,0.198364,1.045227,23.217773,24.829102,-4.321289
1967700896,-0.454102,-0.181885,0.872803,1.998901,0.183105,1.083374,23.217773,24.829102,-4.321289
1970253103,-0.452637,-0.186279,0.873047,1.953125,0.122070,0.732422,22.412109,25.048828,-4.394531
1973260696,-0.453125,-0.184570,0.874268,2.243042,0.221252,1.113892,22.412109,25.048828,-4.394531
1975759980,-0.453613,-0.181396,0.870361,2.052307,0.167847,0.816345,22.412109,25.048828,-4.394531
1978258033,-0.449219,-0.185059,0.877441,2.128601,0.312805,1.029968,22.412109,25.048828,-4.394531
1981231164,-0.452393,-0.184326,0.874756,2.365112,0.312805,0.778198,22.412109,25.048828,-4.394531
1983743576,-0.449463,-0.178467,0.870850,1.998901,0.442505,0.434875,22.412109,25.048828,-4.394531
1986747886,-0.446045,-0.182373,0.874023,2.212524,0.343323,0.846863,22.412109,25.048828,-4.394531
1989823991,-0.444580,-0.181396,0.876953,1.953125,0.663757,0.549316,23.144531,24.609375,-4.101563
1992754455,-0.447754,-0.183838,0.875977,2.265930,0.648499,0.526428,23.144531,24.609375,-4.101563
1995833022,-0.447510,-0.184570,0.877686,2.235413,0.686646,0.808716,23.144531,24.609375,-4.101563
1998838563,-0.447021,-0.183105,0.873779,2.365112,1.083374,0.495911,22.265625,25.195313,-3.515625
2001793232,-0.452148,-0.181885,0.877686,2.342224,0.785828,0.473022,22.265625,25.195313,-3.515625
2004871388,-0.448242,-0.184326,0.875000,2.098083,1.182556,0.549316,22.265625,25.195313,-3.515625
2008301545,-0.451416,-0.183838,0.874756,2.456665,1.258850,0.602722,22.265625,25.195313,-3.515625
2011426060,-0.455078,-0.187012,0.865723,2.571106,0.831604,0.549316,22.631836,24.829102,-4.321289
2014349139,-0.452148,-0.188477,0.870361,2.166748,1.380920,0.717163,22.631836,24.829102,-4.321289
2017353860,-0.449951,-0.185303,0.867676,2.197266,1.449585,0.732422,22.631836,24.829102,-4.321289
2020345042,-0.452637,-0.184326,0.873779,2.349854,1.068115,0.984192,22.778320,24.975586,-4.174805
2023422788,-0.450928,-0.180176,0.872070,2.304077,1.274109,0.915527,22.778320,24.975586,-4.174805
2026352431,-0.456055,-0.183350,0.868896,2.319336,1.296997,0.885010,22.778320,24.975586,-4.174805
2029344024,-0.457275,-0.181152,0.860352,2.136230,1.289368,1.014709,23.144531,24.462891,-4.101563
2031926180,-0.459717,-0.183838,0.863770,2.090454,1.052856,0.953674,23.144531,24.462891,-4.101563
2034850079,-0.462646,-0.183838,0.862793,2.113342,1.327515,0.885010,23.144531,24.462891,-4.101563
2037345261,-0.461670,-0.183838,0.867188,2.197266,1.121521,0.816345,23.144531,24.462891,-4.101563
2039887622,-0.462891,-0.181885,0.862061,2.075195,1.029968,0.999451,23.144531,24.462891,-3.515625
2042469778,-0.461426,-0.179443,0.860840,2.250671,0.968933,0.831604,23.144531,24.462891,-3.515625
2045425268,-0.458740,-0.183350,0.859619,1.846313,0.778198,0.869751,23.144531,24.462891,-3.515625
2048484142,-0.460938,-0.179199,0.863037,1.945496,0.724792,0.732422,23.144531,24.462891,-3.515625
2051438811,-0.460938,-0.177490,0.860107,2.235413,0.869751,0.900269,23.144531,24.462891,-3.515625
2054404147,-0.462158,-0.182861,0.862793,1.716614,0.625610,1.068115,23.144531,24.462891,-3.515625
2056942815,-0.456055,-0.182373,0.864258,1.991272,0.724792,0.854492,23.144531,24.462891,-3.515625
2059505279,-0.454102,-0.180176,0.870117,1.899719,0.335693,0.953674,22.631836,24.975586,-4.467773
2062521487,-0.452148,-0.185303,0.872070,1.838684,0.381470,0.976563,22.631836,24.975586,-4.467773
2065458925,-0.455078,-0.181396,0.868408,1.914978,0.526428,1.083374,22.631836,24.975586,-4.467773
2068505081,-0.454102,-0.184326,0.863770,1.960754,0.625610,1.007080,22.631836,24.975586,-4.467773
2071479443,-0.447510,-0.182129,0.872070,1.876831,0.305176,0.946045,22.631836,24.975586,-4.467773
2074459138,-0.449463,-0.187256,0.873047,1.876831,0.457764,1.144409,22.631836,24.975586,-4.467773
2077147960,-0.448242,-0.185303,0.875488,1.777649,0.434875,1.434326,22.631836,24.975586,-4.467773
2079982014,-0.447266,-0.181885,0.874023,1.686096,0.534058,1.052856,22.412109,24.755859,-4.394531
2082544888,-0.446777,-0.181885,0.879883,2.006531,0.785828,1.388550,22.412109,24.755859,-4.394531
2085549608,-0.445801,-0.185059,0.875977,1.800537,1.129150,1.319885,22.412109,24.755859,-4.394531
2088518226,-0.447998,-0.182617,0.875244,2.090454,1.083374,1.396179,22.412109,24.755859,-4.394531
2091035561,-0.450928,-0.182129,0.876221,1.922607,1.281738,0.915527,22.412109,24.755859,-4.394531
2094020179,-0.452393,-0.182129,0.864502,1.747131,1.518250,1.281738,22.412109,24.755859,-4.394531
2096533002,-0.449219,-0.181641,0.870850,1.991272,1.098633,1.190186,22.412109,24.755859,-4.394531
2099026542,-0.448975,-0.185059,0.865723,2.235413,1.243591,1.091003,22.558594,25.195313,-3.662109
2101597621,-0.447998,-0.185791,0.869385,2.204895,1.174927,1.235962,22.558594,25.195313,-3.662109
2104536701,-0.450439,-0.184570,0.867188,1.976013,1.518250,1.220703,22.558594,25.195313,-3.662109
2107082344,-0.447754,-0.181152,0.865967,2.113342,1.441956,1.136780,22.558594,25.195313,-3.662109
2109584500,-0.454834,-0.184326,0.860107,2.052307,1.365662,1.327515,22.558594,25.195313,-3.662109
2112142450,-0.459473,-0.187988,0.864990,2.334595,1.281738,1.091003,22.558594,25.195313,-3.662109
2115131991,-0.458740,-0.186279,0.863037,2.410889,1.731873,1.350403,22.558594,25.195313,-3.662109
2117666147,-0.456299,-0.185791,0.862549,2.288818,1.335144,0.976563,22.705078,24.755859,-4.394531
2120596201,-0.455811,-0.185059,0.860107,2.235413,1.571655,1.152039,22.705078,24.755859,-4.394531
2123617332,-0.460938,-0.187256,0.852539,2.258301,1.365662,1.007080,22.705078,24.755859,-4.394531
2126116206,-0.461182,-0.183350,0.861084,2.616882,1.358032,1.068115,22.705078,24.755859,-4.394531
2128619182,-0.455566,-0.184326,0.863281,2.563477,1.266479,1.007080,22.705078,24.755859,-4.394531
2131115184,-0.460938,-0.181885,0.856445,2.487183,1.251221,0.930786,22.705078,24.755859,-4.394531
2133733032,-0.460205,-0.183594,0.856445,2.677917,1.136780,1.098633,22.705078,24.755859,-4.394531
2136741035,-0.456787,-0.185303,0.859619,2.380371,1.197815,0.984192,22.705078,24.755859,-4.394531
2139689140,-0.458984,-0.180420,0.863281,2.738953,0.785828,0.907898,22.924805,24.682617,-4.467773
2143160732,-0.461426,-0.179932,0.865234,2.754211,0.946045,0.938416,22.924805,24.682617,-4.467773
2146282376,-0.461670,-0.178711,0.864746,2.616882,1.068115,1.014709,22.924805,24.682617,-4.467773
2149151301,-0.461182,-0.179932,0.875732,2.784729,0.724792,0.793457,22.924805,24.682617,-4.467773
2152237663,-0.452637,-0.179688,0.863037,2.349854,0.823975,0.869751,22.924805,24.682617,-4.467773
2155709666,-0.453857,-0.180420,0.869629,2.433777,0.686646,0.907898,22.924805,24.682617,-4.467773
2158703309,-0.450439,-0.181396,0.875000,2.708435,0.846863,0.938416,23.217773,24.975586,-4.760742
2161246901,-0.451416,-0.180908,0.871094,2.288818,1.045227,0.984192,23.217773,24.975586,-4.760742
2163753980,-0.449707,-0.180664,0.877197,2.441406,1.068115,1.052856,23.217773,24.975586,-4.760742
2166248341,-0.448975,-0.181152,0.874756,2.403259,0.709534,0.885010,23.217773,24.975586,-4.760742
2168700446,-0.450684,-0.180420,0.871582,1.960754,0.976563,0.991821,23.217773,24.975586,-4.760742
2171250191,-0.448486,-0.180664,0.873779,2.449036,0.846863,1.312256,23.217773,24.975586,-4.760742
2174254501,-0.445068,-0.177734,0.875732,2.571106,1.220703,1.083374,23.217773,24.975586,-4.760742
2177248145,-0.450439,-0.178223,0.878418,2.296448,1.495361,1.091003,23.217773,24.975586,-4.760742
2179748250,-0.450439,-0.171387,0.877441,2.487183,1.266479,0.793457,22.705078,25.341797,-4.101563
2182297175,-0.452637,-0.174072,0.879639,2.532959,1.541138,0.839233,22.705078,25.341797,-4.101563
2184798920,-0.450684,-0.174072,0.885010,2.250671,1.449585,0.854492,22.705078,25.341797,-4.101563
2187795846,-0.451904,-0.170166,0.872314,2.319336,1.464844,0.801086,22.705078,25.341797,-4.101563
2190250002,-0.454102,-0.172852,0.881592,2.349854,1.686096,0.579834,22.705078,25.341797,-4.101563
2192844876,-0.454102,-0.175537,0.874023,2.166748,1.655579,0.709534,22.705078,25.341797,-4.101563
2195802417,-0.457764,-0.173096,0.874023,2.723694,1.502991,0.701904,22.705078,25.341797,-4.101563
2198411239,-0.455322,-0.170410,0.870850,2.197266,1.686096,0.450134,22.998047,24.902344,-4.248047
2201405293,-0.461670,-0.171143,0.867432,2.555847,1.754761,0.427246,22.998047,24.902344,-4.248047
2204319757,-0.457520,-0.170654,0.869141,2.319336,2.052307,0.411987,22.998047,24.902344,-4.248047
2206863349,-0.458740,-0.173584,0.872070,1.838684,1.792908,0.106812,22.998047,24.902344,-4.248047
2209817197,-0.460449,-0.172119,0.860840,2.136230,1.846313,0.244141,22.998047,24.902344,-4.248047
2212385815,-0.461426,-0.172119,0.862061,1.899719,1.815796,0.373840,22.998047,24.902344,-4.248047
2215375356,-0.462891,-0.172363,0.859863,2.067566,1.441956,0.366211,22.998047,24.902344,-4.248047
2218419871,-0.458252,-0.175537,0.855469,1.411438,1.556396,0.534058,22.558594,24.755859,-4.248047
2221883258,-0.463379,-0.177246,0.863770,1.548767,1.609802,0.495911,22.558594,24.755859,-4.248047
2224384594,-0.469238,-0.180664,0.851807,1.464844,1.098633,0.328064,22.558594,24.755859,-4.248047
2227390135,-0.462891,-0.177979,0.861328,1.800537,1.586914,0.518799,22.558594,24.755859,-4.248047
2230397317,-0.462891,-0.182373,0.862305,1.800537,1.197815,0.564575,22.558594,24.755859,-4.248047
2232930242,-0.466064,-0.182373,0.858398,1.373291,1.289368,0.534058,22.558594,24.755859,-4.248047
2236017424,-0.461182,-0.182617,0.859131,1.495361,1.274109,0.511169,22.558594,24.755859,-4.248047
2239015580,-0.460205,-0.182373,0.863770,1.617432,0.961304,0.526428,22.851563,25.195313,-3.955078
2242442865,-0.465576,-0.182617,0.862793,1.373291,1.335144,0.610352,22.851563,25.195313,-3.955078
2244945431,-0.459717,-0.188232,0.862061,1.441956,1.075745,0.854492,22.851563,25.195313,-3.955078
2247486972,-0.458740,-0.191162,0.857422,1.930237,0.740051,0.640869,22.851563,25.195313,-3.955078
2250024000,-0.459229,-0.186279,0.859375,1.914978,0.907898,0.885010,22.851563,25.195313,-3.955078
2252937643,-0.459229,-0.184814,0.867920,1.678467,1.007080,0.877380,22.851563,25.195313,-3.955078
2255436927,-0.461914,-0.186523,0.865479,1.525879,0.885010,0.640869,22.851563,25.195313,-3.955078
2257961237,-0.459473,-0.188477,0.860107,2.014160,0.801086,0.877380,22.851563,24.755859,-4.394531
2260962675,-0.457275,-0.182861,0.865479,2.021790,0.892639,0.892639,22.851563,24.755859,-4.394531
2263460318,-0.459961,-0.184570,0.857178,2.029419,0.778198,1.174927,22.851563,24.755859,-4.394531
2266461346,-0.459473,-0.185791,0.864746,2.120972,0.862122,0.877380,22.851563,24.755859,-4.394531
2269048015,-0.461426,-0.180176,0.859863,1.861572,0.663757,1.075745,23.071289,24.829102,-3.735352
2272009659,-0.464600,-0.182129,0.863037,2.136230,0.953674,0.892639,23.071289,24.829102,-3.735352
2274545866,-0.458496,-0.180908,0.854736,1.663208,1.014709,0.968933,23.071289,24.829102,-3.735352
2277548945,-0.461670,-0.182617,0.858398,1.678467,0.556946,0.885010,22.338867,24.682617,-4.321289
2280599204,-0.461914,-0.179688,0.860107,1.998901,0.869751,1.098633,22.338867,24.682617,-4.321289
2283517771,-0.462402,-0.182617,0.856689,1.609802,0.656128,1.174927,22.338867,24.682617,-4.321289
2286088439,-0.462891,-0.182373,0.854248,2.021790,0.640869,1.068115,22.338867,24.682617,-4.321289
2289166185,-0.462158,-0.181396,0.855469,1.747131,0.457764,0.854492,22.631836,24.389648,-4.028320
2292091316,-0.462402,-0.182861,0.859375,1.731873,0.366211,1.167297,22.631836,24.389648,-4.028320
2295087011,-0.462891,-0.179932,0.861572,1.785278,0.297546,0.900269,22.631836,24.389648,-4.028320
2298173372,-0.459717,-0.178711,0.858398,1.495361,0.358582,1.098633,22.192383,25.708008,-4.174805
2301119016,-0.458984,-0.182373,0.860107,1.670837,0.152588,1.159668,22.192383,25.708008,-4.174805
2304595531,-0.461670,-0.188477,0.864990,1.510620,-0.122070,1.205444,22.192383,25.708008,-4.174805
2307133790,-0.454834,-0.186768,0.864014,1.632690,0.251770,1.136780,22.778320,24.829102,-3.881836
2310172151,-0.458008,-0.181396,0.872559,1.785278,0.000000,0.953674,22.778320,24.829102,-3.881836
2313223231,-0.454834,-0.185303,0.864746,1.533508,0.328064,1.258850,22.778320,24.829102,-3.881836
2316225079,-0.455322,-0.186523,0.869629,1.716614,0.007629,1.045227,22.778320,24.829102,-3.881836
2319139543,-0.457520,-0.187744,0.869141,1.571655,0.419617,1.091003,22.485352,25.415039,-4.760742
2321697494,-0.454834,-0.188965,0.870117,1.785278,0.236511,1.098633,22.485352,25.415039,-4.760742
2324638625,-0.458252,-0.184570,0.872803,1.632690,0.549316,1.350403,22.485352,25.415039,-4.760742
2327701191,-0.453369,-0.185303,0.870117,1.693726,0.205994,1.289368,22.705078,25.341797,-4.394531
2330824476,-0.458252,-0.184814,0.866455,1.953125,0.595093,1.258850,22.705078,25.341797,-4.394531
2333737299,-0.460205,-0.181641,0.864990,1.838684,0.679016,1.022339,22.705078,25.341797,-4.394531
2336691968,-0.454590,-0.178955,0.871338,2.166748,0.495911,0.877380,22.705078,25.341797,-4.394531
2339242945,-0.458252,-0.181396,0.871338,1.754761,0.663757,1.182556,22.705078,25.341797,-4.394531
2342307973,-0.460205,-0.184326,0.867676,2.151489,0.579834,0.946045,22.705078,25.341797,-4.394531
2345254437,-0.460938,-0.181641,0.867676,2.151489,0.740051,1.091003,22.705078,25.341797,-4.394531
2348255465,-0.455322,-0.178711,0.862793,1.922607,0.640869,0.923157,23.144531,25.195313,-4.248047
2351237211,-0.460449,-0.182373,0.861572,1.945496,0.419617,1.197815,23.144531,25.195313,-4.248047
2353806649,-0.459961,-0.179443,0.863281,1.998901,0.732422,0.862122,23.144531,25.195313,-4.248047
2356803574,-0.458984,-0.182373,0.867920,2.197266,0.488281,0.968933,23.144531,25.195313,-4.248047
2359810346,-0.461914,-0.175049,0.858154,2.197266,0.320435,0.961304,23.144531,25.195313,-4.248047
2362741630,-0.465576,-0.179443,0.862793,2.067566,0.411987,1.014709,23.144531,25.195313,-4.248047
2365290145,-0.461914,-0.178467,0.852051,2.128601,0.328064,0.801086,23.144531,25.195313,-4.248047
2367822660,-0.460938,-0.177246,0.861084,2.174377,0.434875,1.159668,22.485352,24.975586,-4.028320
2370758458,-0.461670,-0.180908,0.857422,1.914978,0.289917,0.823975,22.485352,24.975586,-4.028320
2373259793,-0.464355,-0.180420,0.856445,1.876831,0.213623,0.846863,22.485352,24.975586,-4.028320
2375761539,-0.456299,-0.181641,0.868408,2.296448,-0.007629,0.869751,22.485352,24.975586,-4.028320
2378311284,-0.459961,-0.178467,0.857422,2.174377,0.106812,0.877380,22.485352,24.975586,-4.028320
2380808517,-0.460449,-0.182617,0.860840,1.838684,0.022888,0.732422,22.485352,24.975586,-4.028320
2383317237,-0.458984,-0.176025,0.865479,1.869202,0.007629,0.953674,22.485352,24.975586,-4.028320
2386314573,-0.456787,-0.181396,0.861816,1.922607,-0.122070,0.991821,22.485352,24.975586,-4.028320
2388890165,-0.453125,-0.180420,0.863037,1.991272,-0.228882,0.717163,22.338867,24.975586,-4.907227
2391817347,-0.454834,-0.185059,0.868652,2.105713,0.061035,0.823975,22.338867,24.975586,-4.907227
2394317862,-0.456787,-0.181885,0.868408,2.281189,0.053406,0.625610,22.338867,24.975586,-4.907227
2396817966,-0.452637,-0.182617,0.873047,2.105713,-0.068665,0.823975,22.338867,24.975586,-4.907227
2399323404,-0.449707,-0.184814,0.865479,2.151489,0.175476,0.885010,22.338867,24.975586,-4.907227
2402418381,-0.452393,-0.182373,0.870117,2.128601,0.068665,0.892639,22.338867,24.975586,-4.907227
2405394794,-0.446533,-0.184814,0.870361,2.288818,0.129700,0.892639,22.338867,24.975586,-4.907227
2408369565,-0.443848,-0.187012,0.877197,2.464294,0.495911,0.549316,22.924805,24.975586,-4.467773
2411372234,-0.447266,-0.181885,0.869141,2.265930,0.244141,0.991821,22.924805,24.975586,-4.467773
2414444647,-0.446533,-0.185059,0.872070,2.296448,0.373840,0.839233,22.924805,24.975586,-4.467773
2417409983,-0.446533,-0.185791,0.867188,2.540588,0.556946,0.991821,22.924805,24.975586,-4.467773
2420434806,-0.450195,-0.184082,0.875488,2.571106,0.625610,0.946045,22.924805,24.975586,-4.467773
2423433373,-0.451904,-0.182129,0.871826,2.670288,0.503540,0.999451,22.924805,24.975586,-4.467773
2426438914,-0.453613,-0.188477,0.872803,2.388000,0.862122,0.785828,22.924805,24.975586,-4.467773
2429419839,-0.453369,-0.181885,0.867676,2.738953,1.045227,0.823975,22.705078,24.902344,-4.833984
2432426611,-0.452881,-0.182861,0.872314,2.677917,0.961304,1.075745,22.705078,24.902344,-4.833984
2434916869,-0.453369,-0.179688,0.869629,2.906799,0.915527,0.785828,22.705078,24.902344,-4.833984
2437487538,-0.455811,-0.179688,0.875488,2.685547,1.052856,1.136780,22.705078,24.902344,-4.833984
2440487746,-0.458252,-0.178223,0.862305,2.838135,0.968933,0.976563,22.705078,24.902344,-4.833984
2443551133,-0.459473,-0.176025,0.861328,2.494812,1.144409,0.747681,22.705078,24.902344,-4.833984
2447035033,-0.460449,-0.177979,0.865479,2.822876,1.159668,0.900269,22.705078,25.048828,-4.101563
2450048779,-0.461426,-0.174805,0.864014,2.693176,0.846863,0.709534,22.705078,25.048828,-4.101563
2452975140,-0.465820,-0.174561,0.858398,2.601624,0.694275,0.968933,22.705078,25.048828,-4.101563
2455476476,-0.465088,-0.171631,0.859619,2.990723,0.633240,0.785828,22.705078,25.048828,-4.101563
2458027042,-0.461670,-0.173340,0.860352,2.815247,0.709534,0.656128,22.705078,25.048828,-4.101563
2461034224,-0.460938,-0.173096,0.865723,2.662659,0.572205,0.541687,22.705078,25.048828,-4.101563
2463560995,-0.461426,-0.178711,0.856201,2.571106,0.511169,0.854492,22.705078,25.048828,-4.101563
2467015357,-0.456055,-0.180176,0.861084,2.426147,0.228882,0.694275,22.705078,25.195313,-4.833984
2470095154,-0.458496,-0.173828,0.864258,2.326965,0.274658,0.839233,22.705078,25.195313,-4.833984
2473059259,-0.458252,-0.175049,0.869141,2.296448,0.205994,1.052856,22.705078,25.195313,-4.833984
2475557723,-0.461670,-0.172607,0.864014,2.288818,0.282288,1.060486,22.705078,25.195313,-4.833984
2478059879,-0.454102,-0.173096,0.870117,2.243042,0.045776,0.877380,22.705078,25.195313,-4.833984
2480569009,-0.461914,-0.174316,0.866455,2.006531,0.114441,0.938416,22.705078,25.195313,-4.833984
2483061319,-0.456787,-0.170654,0.864746,2.326965,-0.083923,0.785828,22.705078,25.195313,-4.833984
2485568398,-0.457520,-0.173340,0.865479,2.159119,0.297546,0.816345,22.705078,25.195313,-4.833984
2488065220,-0.458008,-0.175293,0.874268,2.243042,0.053406,1.106262,23.071289,24.975586,-4.174805
2490566556,-0.458008,-0.170166,0.877441,2.159119,-0.083923,0.801086,23.071289,24.975586,-4.174805
2493617635,-0.456299,-0.170898,0.873535,2.288818,0.061035,0.885010,23.071289,24.975586,-4.174805
2496650663,-0.457520,-0.170654,0.868164,2.014160,0.198364,0.724792,23.071289,24.975586,-4.174805
2499673025,-0.456543,-0.174072,0.877686,2.151489,0.160217,0.717163,23.071289,24.975586,-4.174805
2502698258,-0.453369,-0.172607,0.870361,1.770020,0.404358,0.686646,23.071289,24.975586,-4.174805
2505748927,-0.451660,-0.172852,0.874268,2.227783,0.411987,0.602722,23.071289,24.975586,-4.174805
2508705648,-0.451660,-0.178711,0.873779,1.853943,0.457764,0.648499,22.778320,25.122070,-4.614258
2511661137,-0.454590,-0.172852,0.874512,1.831055,0.663757,0.701904,22.778320,25.122070,-4.614258
2514623191,-0.455078,-0.171387,0.876709,1.731873,0.686646,0.801086,22.778320,25.122070,-4.614258
2517175398,-0.457275,-0.174561,0.875488,1.884460,0.724792,0.526428,22.778320,25.122070,-4.614258
2519665657,-0.458984,-0.172363,0.870850,1.510620,0.709534,0.785828,22.778320,25.122070,-4.614258
2522233454,-0.460693,-0.175049,0.874268,1.747131,0.640869,0.778198,22.778320,25.122070,-4.614258
2525246789,-0.465820,-0.173828,0.870117,1.441956,0.686646,0.724792,22.778320,25.122070,-4.614258
2528185459,-0.461670,-0.171875,0.868408,1.388550,0.480652,0.511169,22.558594,24.609375,-4.541016
2530688025,-0.464844,-0.174072,0.872803,1.502991,0.816345,0.648499,22.558594,24.609375,-4.541016
2533719822,-0.461670,-0.174072,0.866455,1.091003,0.434875,0.556946,22.558594,24.609375,-4.541016
2536695004,-0.465332,-0.175537,0.871094,1.342773,0.564575,0.450134,22.558594,24.609375,-4.541016
2539195519,-0.466553,-0.177734,0.865723,1.022339,0.457764,0.457764,22.558594,24.609375,-4.541016
2542299111,-0.468018,-0.179932,0.856689,1.335144,0.411987,0.488281,22.558594,24.609375,-4.541016
2545291934,-0.464844,-0.178711,0.863525,1.113892,0.335693,0.358582,22.558594,24.609375,-4.541016
2548299526,-0.463379,-0.181396,0.857178,1.373291,0.625610,0.160217,22.924805,25.268555,-4.760742
2551298913,-0.460938,-0.183350,0.853760,1.152039,0.282288,0.137329,22.924805,25.268555,-4.760742
2554352044,-0.462402,-0.184082,0.854004,1.564026,0.053406,0.328064,22.924805,25.268555,-4.760742
2557776047,-0.457764,-0.184570,0.850098,1.464844,-0.221252,0.045776,22.778320,25.122070,-4.321289
2561353075,-0.455322,-0.181396,0.855469,1.281738,-0.198364,0.289917,22.778320,25.122070,-4.321289
2564361898,-0.457764,-0.181396,0.854492,1.365662,-0.099182,0.129700,22.778320,25.122070,-4.321289
2567326003,-0.455322,-0.185303,0.855713,1.525879,-0.350952,0.282288,22.631836,25.708008,-4.321289
2570358211,-0.452148,-0.184814,0.854004,1.220703,-0.610352,0.396729,22.631836,25.708008,-4.321289
2573358829,-0.450684,-0.186768,0.860840,1.632690,-0.350952,0.404358,22.631836,25.708008,-4.321289
2576361088,-0.449707,-0.185791,0.869385,1.197815,-0.411987,0.450134,22.485352,24.829102,-4.321289
2579425295,-0.452393,-0.189453,0.859619,1.380920,-0.511169,0.572205,22.485352,24.829102,-4.321289
2582811555,-0.448975,-0.192871,0.859863,1.647949,-0.221252,0.823975,22.485352,24.829102,-4.321289
2585909403,-0.448486,-0.189697,0.875732,1.525879,-0.259399,0.488281,22.851563,25.048828,-4.101563
2588849303,-0.449219,-0.187500,0.871094,2.174377,-0.274658,0.755310,22.851563,25.048828,-4.101563
2591516793,-0.449463,-0.189941,0.878418,1.853943,-0.022888,0.885010,22.851563,25.048828,-4.101563
2594355769,-0.449219,-0.187256,0.875000,2.235413,0.038147,1.007080,22.851563,25.048828,-4.101563
2596893207,-0.450439,-0.191406,0.883301,2.067566,0.038147,1.113892,22.265625,25.195313,-4.687500
2599394543,-0.449951,-0.189209,0.883057,2.258301,0.267029,0.976563,22.265625,25.195313,-4.687500
2601959058,-0.457031,-0.188232,0.876221,2.349854,0.404358,0.984192,22.265625,25.195313,-4.687500
2604900598,-0.456299,-0.186279,0.872070,2.136230,0.381470,1.068115,22.265625,25.195313,-4.687500
2607397421,-0.458496,-0.182617,0.871826,2.647400,0.663757,0.984192,23.071289,25.122070,-4.028320
2609979167,-0.457520,-0.182373,0.874023,2.281189,0.274658,1.144409,23.071289,25.122070,-4.028320
2613033938,-0.454590,-0.182373,0.868652,2.380371,0.465393,0.938416,23.071289,25.122070,-4.028320
2616033325,-0.458984,-0.180908,0.867432,2.616882,0.534058,0.984192,23.071289,24.829102,-4.614258
2619446662,-0.459717,-0.181885,0.865723,2.769470,0.656128,0.610352,23.071289,24.829102,-4.614258
2621997228,-0.461670,-0.183594,0.861328,2.876282,0.717163,0.770569,23.071289,24.829102,-4.614258
2625058153,-0.459717,-0.180176,0.857666,3.135681,0.656128,0.968933,23.071289,24.829102,-4.614258
2628496105,-0.457764,-0.183105,0.858398,2.876282,0.503540,0.785828,23.071289,24.829102,-4.614258
2631506569,-0.453125,-0.185059,0.854248,2.975464,0.358582,0.762939,23.071289,24.829102,-4.614258
2634488315,-0.456543,-0.189209,0.861572,3.150940,0.396729,0.679016,23.071289,24.829102,-4.614258
2637493035,-0.453125,-0.190918,0.861084,3.082275,0.366211,0.839233,22.851563,24.755859,-4.541016
2639989858,-0.453613,-0.188477,0.858887,2.906799,0.038147,0.930786,22.851563,24.755859,-4.541016
2643007707,-0.458496,-0.187500,0.862061,3.067017,0.366211,1.060486,22.851563,24.755859,-4.541016
2645500016,-0.455811,-0.185303,0.860352,3.120422,0.236511,1.113892,22.851563,24.755859,-4.541016
2648073147,-0.457520,-0.184082,0.859863,3.349304,0.274658,1.396179,22.851563,24.755859,-4.541016
2651569765,-0.456055,-0.184814,0.860107,3.166199,0.053406,1.144409,22.851563,24.755859,-4.541016
2654565049,-0.453125,-0.175293,0.867432,3.433228,0.404358,1.266479,22.851563,24.755859,-4.541016
2657559924,-0.453369,-0.180176,0.859863,3.204346,0.099182,1.251221,22.631836,24.829102,-4.028320
2660549465,-0.447998,-0.178711,0.861328,3.173828,0.404358,1.342773,22.631836,24.829102,-4.028320
2663043415,-0.447754,-0.173584,0.870605,3.479004,0.274658,1.464844,22.631836,24.829102,-4.028320
2665537776,-0.450439,-0.172852,0.874512,2.944946,0.495911,1.243591,22.631836,24.829102,-4.028320
2668173266,-0.444092,-0.167725,0.872803,2.845764,0.633240,1.441956,22.631836,24.829102,-4.028320
2671182499,-0.447266,-0.166992,0.868164,2.937317,0.564575,1.426697,22.631836,24.829102,-4.028320
2674160553,-0.449219,-0.162109,0.881104,2.761841,0.633240,1.167297,22.631836,24.829102,-4.028320
2677144350,-0.444580,-0.166992,0.881348,2.784729,0.701904,1.426697,22.924805,24.829102,-4.467773
2680142506,-0.446045,-0.163818,0.872314,2.738953,0.976563,1.342773,22.924805,24.829102,-4.467773
2683114406,-0.451172,-0.165771,0.881592,2.586365,1.060486,1.052856,22.924805,24.829102,-4.467773
2685588254,-0.448242,-0.162598,0.875488,2.151489,1.152039,1.007080,22.924805,24.829102,-4.467773
2688120769,-0.450195,-0.163330,0.884766,2.372742,1.243591,1.113892,22.924805,24.829102,-4.467773
2691270721,-0.448975,-0.164307,0.879150,2.059937,1.266479,0.808716,22.924805,24.829102,-4.467773
2694264774,-0.452393,-0.164063,0.874512,2.014160,1.342773,1.007080,22.924805,24.829102,-4.467773
2697181289,-0.452637,-0.167969,0.862793,1.930237,1.686096,0.740051,22.192383,25.122070,-4.028320
2699692061,-0.452148,-0.167969,0.870605,1.907349,1.403809,0.671387,22.192383,25.122070,-4.028320
2702645499,-0.454102,-0.167236,0.868652,1.693726,1.693726,0.976563,22.192383,25.122070,-4.028320
2705196886,-0.455566,-0.164795,0.869141,1.640320,1.480103,0.877380,22.192383,25.122070,-4.028320
2708273811,-0.456543,-0.171875,0.869385,1.525879,1.029968,0.762939,22.192383,25.122070,-4.028320
2711326532,-0.461182,-0.174805,0.865479,1.373291,1.586914,0.701904,22.192383,25.122070,-4.028320
2714303765,-0.458984,-0.176270,0.861328,1.304626,1.472473,0.686646,22.192383,25.122070,-4.028320
2717293716,-0.457520,-0.175293,0.860840,1.274109,1.502991,0.755310,22.631836,24.829102,-4.174805
2720274642,-0.460693,-0.177002,0.859863,1.327515,1.365662,1.014709,22.631836,24.829102,-4.174805
2723201824,-0.461670,-0.179932,0.863525,0.938416,1.098633,1.075745,22.631836,24.829102,-4.174805
2725745826,-0.462891,-0.177979,0.864502,1.182556,1.167297,1.022339,22.631836,24.829102,-4.174805
2728254546,-0.462158,-0.178711,0.863281,1.129150,0.862122,0.877380,22.631836,24.829102,-4.174805
2731263369,-0.463867,-0.176025,0.853516,1.159668,0.984192,1.045227,22.631836,24.829102,-4.174805
2734241422,-0.464355,-0.181641,0.858887,0.495911,1.007080,0.892639,22.631836,24.829102,-4.174805
2736789937,-0.459961,-0.184814,0.865967,1.228333,0.801086,0.968933,22.998047,24.755859,-4.541016
2739749119,-0.463867,-0.177734,0.863770,0.869751,0.923157,1.068115,22.998047,24.755859,-4.541016
2742829327,-0.463379,-0.179688,0.867432,0.999451,0.564575,1.243591,22.998047,24.755859,-4.541016
2745806150,-0.459229,-0.178955,0.864258,0.999451,0.648499,0.923157,22.998047,24.755859,-4.541016
2748853127,-0.460205,-0.178711,0.861328,0.816345,0.564575,0.999451,22.998047,24.755859,-4.541016
2751781950,-0.461670,-0.179688,0.857422,0.923157,0.350952,1.014709,22.998047,24.755859,-4.541016
2754830157,-0.455078,-0.179199,0.870117,0.946045,0.534058,0.671387,22.998047,24.755859,-4.541016
2757888621,-0.454834,-0.178955,0.865234,1.098633,0.617981,0.923157,22.631836,24.975586,-4.174805
2760861752,-0.458496,-0.180420,0.864746,0.892639,0.549316,0.503540,22.631836,24.975586,-4.174805
2763378267,-0.455811,-0.184814,0.868652,1.060486,0.671387,0.862122,22.631836,24.975586,-4.174805
2766344013,-0.459961,-0.184814,0.865723,1.083374,0.518799,0.556946,22.631836,24.975586,-4.174805
2769443913,-0.457031,-0.191162,0.864014,0.801086,0.480652,0.587463,22.631836,24.975586,-4.174805
2772420736,-0.455322,-0.190430,0.865967,1.365662,0.465393,0.793457,22.631836,24.975586,-4.174805
2775411508,-0.456055,-0.190674,0.863770,1.075745,0.511169,0.762939,22.998047,25.488281,-4.833984
2778408023,-0.455078,-0.187012,0.872070,1.182556,0.465393,0.732422,22.998047,25.488281,-4.833984
2781411923,-0.460449,-0.190186,0.872559,1.441956,0.312805,0.587463,22.998047,25.488281,-4.833984
2783967412,-0.458252,-0.195557,0.864746,1.609802,0.503540,0.801086,22.998047,25.488281,-4.833984
2787413158,-0.455811,-0.196777,0.869873,1.434326,0.411987,0.717163,22.998047,25.488281,-4.833984
2790453981,-0.450928,-0.193848,0.865967,1.495361,0.434875,0.953674,22.998047,25.488281,-4.833984
2793462804,-0.455322,-0.198486,0.855957,1.678467,0.549316,0.999451,22.998047,25.488281,-4.833984
2796470397,-0.456055,-0.197266,0.872070,1.922607,0.404358,0.930786,22.338867,25.268555,-4.467773
2799899322,-0.454590,-0.197021,0.859619,2.151489,0.457764,0.915527,22.338867,25.268555,-4.467773
2802466709,-0.456543,-0.198242,0.869385,2.296448,0.228882,1.083374,22.338867,25.268555,-4.467773
2805516968,-0.456299,-0.197021,0.864746,2.639771,0.106812,1.014709,22.338867,25.268555,-4.467773
2808446612,-0.455566,-0.195068,0.864746,2.799988,0.297546,1.068115,22.338867,25.268555,-4.467773
2811030409,-0.456299,-0.197754,0.861572,2.944946,0.289917,1.068115,22.338867,25.268555,-4.467773
2814029796,-0.454590,-0.193848,0.866455,2.922058,0.579834,1.167297,22.338867,25.268555,-4.467773
2817033285,-0.456055,-0.194580,0.873535,3.005981,0.434875,1.190186,22.778320,24.682617,-4.467773
2820031031,-0.454590,-0.194336,0.870850,2.990723,0.473022,1.274109,22.778320,24.682617,-4.467773
2822993906,-0.455078,-0.197021,0.869141,3.097534,0.289917,1.098633,22.778320,24.682617,-4.467773
2826115139,-0.452148,-0.190918,0.862793,3.440857,0.358582,1.564026,22.851563,24.755859,-4.394531
2829111244,-0.454834,-0.185059,0.869385,3.295898,0.396729,1.251221,22.851563,24.755859,-4.394531
2832082323,-0.453613,-0.184082,0.870117,3.707886,0.404358,1.182556,22.851563,24.755859,-4.394531
2835123146,-0.446533,-0.186279,0.870361,3.646851,0.511169,1.396179,23.144531,25.195313,-4.833984
2838124995,-0.450684,-0.185547,0.869873,3.646851,0.701904,1.426697,23.144531,25.195313,-4.833984
2841605203,-0.447510,-0.179932,0.870850,3.868103,0.671387,1.419067,23.144531,25.195313,-4.833984
2844629205,-0.447754,-0.175049,0.875977,3.616333,1.075745,1.266479,23.144531,25.195313,-4.833984
2847605618,-0.447510,-0.173340,0.869873,3.860474,0.816345,1.525879,22.705078,25.341797,-4.394531
2850658339,-0.447510,-0.172852,0.877441,3.662109,0.968933,1.480103,22.705078,25.341797,-4.394531
2853694238,-0.450684,-0.170410,0.870605,3.662109,0.701904,1.365662,22.705078,25.341797,-4.394531
2856689113,-0.450928,-0.169434,0.873535,3.517151,1.342773,1.579285,23.291016,24.755859,-3.955078
2860161116,-0.450928,-0.170410,0.874512,3.417969,1.243591,1.457214,23.291016,24.755859,-3.955078
2863122759,-0.453125,-0.162598,0.877930,3.273010,1.159668,1.533508,23.291016,24.755859,-3.955078
2866205018,-0.454346,-0.165283,0.866943,3.303528,1.243591,1.579285,22.998047,24.609375,-3.955078
2869183892,-0.457520,-0.160400,0.871094,2.815247,1.441956,1.419067,22.998047,24.609375,-3.955078
2872103279,-0.454346,-0.162842,0.872559,3.112793,1.602173,1.220703,22.998047,24.609375,-3.955078
2875104307,-0.456543,-0.153809,0.866699,2.571106,1.457214,1.441956,22.705078,24.755859,-4.101563
2877683181,-0.461182,-0.150146,0.868408,2.540588,1.586914,1.480103,22.705078,24.755859,-4.101563
2880659184,-0.462158,-0.149414,0.872803,2.494812,1.548767,1.243591,22.705078,24.755859,-4.101563
2883647084,-0.459473,-0.153076,0.875244,2.258301,1.426697,1.190186,22.705078,24.755859,-4.101563
2886165650,-0.464111,-0.151123,0.868164,1.892090,1.358032,0.831604,23.071289,24.829102,-4.467773
2889203601,-0.459717,-0.148926,0.855957,2.098083,1.373291,0.701904,23.071289,24.829102,-4.467773
2892227193,-0.464355,-0.152344,0.859619,1.541138,0.900269,0.747681,23.071289,24.829102,-4.467773
2895215503,-0.466553,-0.149902,0.856934,1.724243,0.999451,0.450134,23.071289,24.536133,-4.321289
2897713146,-0.464600,-0.153564,0.863037,1.266479,1.045227,0.373840,23.071289,24.536133,-4.321289
2900761764,-0.461426,-0.154785,0.855957,1.335144,0.885010,0.297546,23.071289,24.536133,-4.321289
2903796433,-0.462158,-0.153076,0.849609,0.930786,0.953674,0.267029,23.071289,24.536133,-4.321289
2906897974,-0.467773,-0.160645,0.849365,0.885010,0.839233,0.129700,22.631836,24.536133,-4.321289
2909812849,-0.458984,-0.163330,0.859863,0.846863,0.511169,0.236511,22.631836,24.536133,-4.321289
2912776543,-0.461670,-0.166992,0.848633,0.617981,0.701904,0.205994,22.631836,24.536133,-4.321289
2915847315,-0.463867,-0.168457,0.858887,0.602722,0.556946,0.076294,22.631836,24.536133,-4.321289
2919222908,-0.461670,-0.174561,0.860596,0.633240,0.579834,0.061035,22.631836,24.536133,-4.321289
2921787833,-0.462891,-0.177979,0.864258,0.854492,0.564575,0.053406,22.631836,24.536133,-4.321289
2925352554,-0.465332,-0.182129,0.850830,0.518799,0.228882,0.045776,22.778320,24.829102,-4.174805
2928344146,-0.466309,-0.181152,0.857910,0.663757,0.228882,0.122070,22.778320,24.829102,-4.174805
2931271738,-0.464111,-0.187012,0.861572,0.755310,0.457764,-0.053406,22.778320,24.829102,-4.174805
2933764868,-0.460449,-0.185303,0.870361,1.052856,0.228882,0.274658,22.778320,24.829102,-4.174805
2936263742,-0.465088,-0.189941,0.866699,0.991821,0.251770,0.122070,22.778320,24.829102,-4.174805
2938818821,-0.462646,-0.190186,0.875977,0.953674,-0.167847,0.358582,22.778320,24.829102,-4.174805
2941319336,-0.458496,-0.191650,0.863281,1.403809,0.038147,0.389099,22.778320,24.829102,-4.174805
2943898620,-0.456787,-0.192383,0.868896,0.999451,0.129700,0.526428,22.778320,25.122070,-3.881836
2946807340,-0.455078,-0.191406,0.875977,1.266479,0.122070,0.587463,22.778320,25.122070,-3.881836
2949369804,-0.450928,-0.195313,0.873047,1.304626,0.022888,0.534058,22.778320,25.122070,-3.881836
2952390114,-0.450684,-0.193115,0.880371,1.396179,0.190735,0.709534,22.778320,25.122070,-3.881836
2955399348,-0.449219,-0.197266,0.875732,1.617432,0.198364,0.717163,22.778320,25.122070,-3.881836
2958474632,-0.445068,-0.197754,0.873291,1.594543,0.534058,0.869751,22.778320,25.122070,-3.881836
2961425199,-0.444092,-0.196045,0.870850,1.655579,0.366211,0.755310,22.778320,25.122070,-3.881836
2964381919,-0.444580,-0.197998,0.872803,1.983643,0.717163,1.190186,22.705078,25.195313,-4.248047
2967381306,-0.445068,-0.196045,0.872803,2.075195,0.968933,1.327515,22.705078,25.195313,-4.248047
2969886334,-0.443604,-0.196045,0.874756,1.953125,1.052856,1.419067,22.705078,25.195313,-4.248047
2972906644,-0.446777,-0.192383,0.870850,2.494812,1.129150,1.480103,22.705078,25.195313,-4.248047
2975906031,-0.451172,-0.191650,0.871582,2.227783,1.365662,1.472473,22.705078,25.195313,-4.248047
2978947675,-0.450195,-0.190186,0.870850,2.403259,1.205444,1.411438,22.705078,25.195313,-4.248047
2981958139,-0.450439,-0.187256,0.874023,2.510071,1.541138,1.724243,22.705078,25.195313,-4.248047
2985042859,-0.458252,-0.185547,0.870605,2.616882,1.609802,1.533508,22.265625,25.048828,-4.101563
2987919169,-0.457031,-0.182617,0.873291,2.799988,1.358032,1.907349,22.265625,25.048828,-4.101563
2990432812,-0.458008,-0.181885,0.864990,2.563477,1.541138,1.686096,22.265625,25.048828,-4.101563
2992991994,-0.460693,-0.180664,0.864258,2.815247,1.548767,1.747131,22.265625,25.048828,-4.101563
2995961432,-0.464600,-0.176758,0.854248,2.769470,1.472473,1.464844,22.265625,25.048828,-4.101563
2998963691,-0.461670,-0.173584,0.860107,2.632141,1.564026,1.235962,22.265625,25.048828,-4.101563
3001459693,-0.467285,-0.169678,0.857666,2.532959,1.274109,1.197815,22.265625,25.048828,-4.101563
3004595696,-0.468506,-0.170898,0.856201,2.525330,1.106262,1.556396,22.412109,24.755859,-3.808594
3008039391,-0.472900,-0.168701,0.854736,2.456665,1.159668,1.289368,22.412109,24.755859,-3.808594
3011054368,-0.465332,-0.168213,0.859375,2.388000,0.541687,1.251221,22.412109,24.755859,-3.808594
3014021755,-0.469482,-0.163818,0.853760,2.548218,0.755310,1.213074,22.412109,24.755859,-3.808594
3017049039,-0.465332,-0.168213,0.859131,2.365112,0.434875,1.083374,22.412109,24.755859,-3.808594
3020015195,-0.469238,-0.169189,0.858887,2.326965,0.198364,0.999451,22.412109,24.755859,-3.808594
3022581351,-0.465332,-0.165283,0.854492,2.265930,0.411987,0.984192,22.412109,24.755859,-3.808594
3025517969,-0.458008,-0.171143,0.857910,1.792908,0.137329,0.984192,23.217773,24.389648,-4.467773
3028564946,-0.459473,-0.168701,0.854004,2.075195,-0.274658,1.075745,23.217773,24.389648,-4.467773
3031561461,-0.456543,-0.171387,0.871582,2.075195,-0.022888,0.862122,23.217773,24.389648,-4.467773
3034610489,-0.454834,-0.169189,0.868652,1.754761,-0.129700,1.113892,23.217773,24.389648,-4.467773
3037613159,-0.455078,-0.171143,0.865723,1.899719,-0.007629,1.251221,23.217773,24.389648,-4.467773
3040649058,-0.454346,-0.173340,0.861816,1.892090,-0.381470,0.946045,23.217773,24.389648,-4.467773
3044151420,-0.451416,-0.170166,0.874756,1.838684,-0.106812,1.045227,22.485352,24.389648,-4.467773
3047202500,-0.453125,-0.173096,0.871582,1.693726,0.152588,1.152039,22.485352,24.975586,-4.467773
3050673272,-0.451904,-0.169189,0.870605,1.380920,0.350952,1.068115,22.485352,24.975586,-4.467773
3053676351,-0.453369,-0.167969,0.874512,1.403809,0.350952,1.373291,22.485352,24.975586,-4.467773
3056672046,-0.451904,-0.165283,0.864746,1.350403,0.526428,1.174927,22.485352,24.975586,-4.467773
3059591843,-0.447998,-0.168213,0.873535,1.083374,0.350952,1.228333,22.485352,24.975586,-4.467773
3062194102,-0.449707,-0.167969,0.872559,0.930786,0.671387,1.167297,22.485352,24.975586,-4.467773
3065154514,-0.448242,-0.168945,0.874268,1.037598,0.900269,1.136780,22.998047,24.609375,-4.687500
3068159645,-0.450684,-0.167969,0.872314,1.197815,0.686646,0.877380,22.998047,24.609375,-4.687500
3071156160,-0.447754,-0.173584,0.869873,0.869751,0.663757,1.174927,22.998047,24.609375,-4.687500
3074173599,-0.452637,-0.174316,0.872314,0.869751,1.091003,1.014709,22.998047,24.609375,-4.687500
3077206217,-0.453369,-0.177979,0.869385,0.869751,0.892639,1.022339,22.998047,24.609375,-4.687500
3080699143,-0.453857,-0.174805,0.873047,0.686646,1.235962,1.022339,22.998047,24.609375,-4.687500
3084344684,-0.458252,-0.181152,0.874512,0.770569,0.915527,0.900269,23.291016,25.488281,-3.955078
3087248481,-0.459717,-0.180664,0.870117,1.190186,1.075745,0.816345,23.291016,25.488281,-3.955078
3090246227,-0.459229,-0.178223,0.869629,0.938416,1.106262,0.747681,23.291016,25.488281,-3.955078
3093380999,-0.461914,-0.178467,0.863525,1.068115,1.136780,0.663757,23.291016,25.488281,-3.955078
3096213002,-0.457764,-0.178223,0.871582,0.930786,0.930786,0.717163,23.291016,25.488281,-3.955078
3098802132,-0.461914,-0.183105,0.872803,0.976563,0.946045,0.923157,23.291016,25.488281,-3.955078
3101729314,-0.466553,-0.187500,0.869629,1.266479,0.801086,0.923157,23.291016,25.488281,-3.955078
3104771368,-0.469238,-0.186768,0.859131,0.999451,1.060486,0.709534,22.631836,25.122070,-4.174805
3107751473,-0.467529,-0.185059,0.861328,1.403809,0.999451,0.343323,22.631836,25.122070,-4.174805
3110750039,-0.472168,-0.183838,0.866943,1.647949,0.961304,0.610352,22.631836,25.122070,-4.174805
3113249323,-0.467529,-0.183350,0.860352,1.419067,0.915527,0.366211,22.631836,25.122070,-4.174805
3115755171,-0.469727,-0.182129,0.861328,1.754761,0.976563,0.442505,22.631836,25.122070,-4.174805
3118299584,-0.470459,-0.179199,0.857666,1.708984,0.846863,0.129700,22.631836,25.122070,-4.174805
3121259176,-0.470703,-0.179932,0.859375,1.541138,0.633240,0.450134,22.631836,25.122070,-4.174805
3123796204,-0.470459,-0.176270,0.857666,1.914978,0.465393,0.328064,22.485352,25.268555,-3.881836
3126328308,-0.468506,-0.175293,0.861328,1.899719,0.808716,0.350952,22.485352,25.268555,-3.881836
3129297747,-0.469727,-0.176025,0.854248,1.831055,0.450134,0.091553,22.485352,25.268555,-3.881836
3132352108,-0.469482,-0.175049,0.857422,1.991272,0.267029,0.045776,22.485352,25.268555,-3.881836
3135317854,-0.471924,-0.173096,0.855957,1.998901,0.396729,0.267029,22.485352,25.268555,-3.881836
3137820010,-0.465820,-0.174805,0.861328,1.815796,0.167847,0.091553,22.485352,25.268555,-3.881836
3140336115,-0.468262,-0.178223,0.864502,1.556396,-0.274658,0.144958,22.485352,25.268555,-3.881836
3142828014,-0.464600,-0.171875,0.865723,1.602173,0.259399,0.000000,22.631836,25.122070,-4.321289
3145321965,-0.470215,-0.169434,0.856689,1.632690,0.000000,0.251770,22.631836,25.122070,-4.321289
3148375916,-0.465820,-0.168457,0.868408,1.487732,-0.152588,0.099182,22.631836,25.122070,-4.321289
3151415508,-0.463623,-0.169678,0.864258,1.693726,-0.015259,0.328064,22.631836,25.122070,-4.321289
3154460844,-0.465820,-0.170898,0.867432,1.388550,-0.602722,0.099182,23.217773,25.268555,-4.028320
3157408539,-0.468994,-0.169678,0.866699,1.129150,-0.267029,-0.022888,23.217773,25.268555,-4.028320
3160502285,-0.465576,-0.167725,0.864014,1.174927,-0.068665,0.205994,23.217773,25.268555,-4.028320
3163921365,-0.461182,-0.166016,0.863770,1.098633,-0.534058,0.122070,23.583984,24.902344,-4.833984
3166917880,-0.461670,-0.166992,0.867676,0.572205,-0.404358,-0.076294,23.583984,24.902344,-4.833984
3169995626,-0.463867,-0.169434,0.868652,0.770569,-0.717163,-0.045776,23.583984,24.902344,-4.833984
3172917475,-0.459717,-0.166748,0.871826,0.694275,-0.297546,-0.022888,23.583984,24.902344,-4.833984
3175414297,-0.456787,-0.166260,0.865723,0.579834,-0.709534,-0.129700,22.558594,25.195313,-3.955078
3177997684,-0.458740,-0.170166,0.868652,0.434875,-0.434875,-0.122070,22.558594,25.195313,-3.955078
3181020456,-0.459717,-0.173584,0.869873,0.610352,-0.358582,-0.343323,22.558594,25.195313,-3.955078
3183973074,-0.454834,-0.175537,0.869385,0.640869,-0.724792,-0.038147,22.485352,24.829102,-4.321289
3186966717,-0.454346,-0.175537,0.870117,0.320435,-0.541687,-0.312805,22.485352,24.829102,-4.321289
3189463950,-0.451660,-0.180176,0.873047,0.625610,-0.350952,0.053406,22.485352,24.829102,-4.321289
3192527337,-0.455322,-0.178223,0.869385,0.640869,-0.297546,-0.152588,22.485352,24.829102,-4.321289
3195471339,-0.456055,-0.183594,0.879639,0.732422,-0.343323,-0.083923,22.631836,25.415039,-4.321289
3197973906,-0.452393,-0.185791,0.869385,0.465393,-0.312805,-0.175476,22.631836,25.415039,-4.321289
3200469087,-0.446777,-0.185791,0.867676,1.083374,-0.495911,-0.083923,22.631836,25.415039,-4.321289
3203013910,-0.448486,-0.189209,0.872314,0.885010,-0.205994,-0.106812,22.705078,24.755859,-4.248047
3205516066,-0.454346,-0.187256,0.863525,0.930786,-0.007629,0.122070,22.705078,24.755859,-4.248047
3208021093,-0.451904,-0.184570,0.867188,0.846863,0.045776,-0.007629,22.705078,24.755859,-4.248047
3210522839,-0.452881,-0.187500,0.872803,1.075745,-0.221252,0.061035,22.705078,24.755859,-4.248047
3213069303,-0.449219,-0.190674,0.866943,1.007080,0.068665,0.320435,22.631836,25.122070,-4.028320
3216114638,-0.450928,-0.191895,0.871582,0.671387,0.221252,0.068665,22.631836,25.122070,-4.028320
3218613512,-0.451660,-0.194336,0.875732,0.961304,0.335693,0.457764,22.631836,25.122070,-4.028320
3221589515,-0.450439,-0.193115,0.873535,1.121521,0.022888,0.328064,22.631836,25.122070,-4.028320
3224103978,-0.458008,-0.196045,0.872559,0.953674,0.419617,0.427246,22.631836,25.122070,-4.028320
3227092288,-0.457520,-0.191895,0.866943,1.029968,0.350952,0.434875,22.631836,25.122070,-4.028320
3229638342,-0.457764,-0.190186,0.866699,1.403809,0.526428,0.556946,22.631836,25.122070,-4.028320
3232652908,-0.456055,-0.182617,0.870117,1.594543,0.442505,0.686646,22.631836,25.122070,-4.028320
3235724911,-0.459473,-0.182861,0.860596,1.480103,0.419617,0.473022,22.851563,24.609375,-4.687500
3238597529,-0.459473,-0.180420,0.864990,1.365662,0.312805,0.457764,22.851563,24.609375,-4.687500
3241172710,-0.456543,-0.176514,0.869629,1.449585,0.411987,0.518799,22.851563,24.609375,-4.687500
3244174559,-0.459473,-0.178711,0.857422,1.358032,0.556946,0.434875,22.851563,24.609375,-4.687500
3246741125,-0.457275,-0.176025,0.862549,1.487732,0.305176,0.549316,22.851563,24.609375,-4.687500
3249649845,-0.456299,-0.173584,0.864746,1.235962,0.724792,0.396729,22.851563,24.609375,-4.687500
3252692309,-0.457520,-0.171143,0.865723,1.525879,0.312805,0.450134,22.851563,24.609375,-4.687500
3255190363,-0.457031,-0.171143,0.861572,1.075745,0.236511,0.373840,22.631836,24.829102,-4.614258
3258188929,-0.456055,-0.170410,0.865234,1.335144,0.488281,0.328064,22.631836,24.829102,-4.614258
3260689034,-0.453369,-0.172607,0.866455,1.457214,0.305176,0.137329,22.631836,24.829102,-4.614258
3263199395,-0.456543,-0.167480,0.857422,0.961304,0.381470,0.328064,22.631836,24.829102,-4.614258
3265694987,-0.450928,-0.167969,0.866455,0.946045,0.244141,0.236511,22.631836,24.829102,-4.614258
3268188527,-0.452393,-0.170166,0.868408,0.946045,0.396729,0.190735,22.631836,24.829102,-4.614258
3270693555,-0.452637,-0.170898,0.865723,0.785828,0.312805,0.137329,22.631836,24.829102,-4.614258
3273282685,-0.450684,-0.169434,0.867432,0.724792,0.373840,0.137329,22.778320,24.682617,-4.614258
3276293560,-0.448486,-0.174805,0.870361,0.885010,-0.045776,0.358582,22.778320,24.682617,-4.614258
3279281870,-0.448242,-0.174316,0.870605,0.450134,0.350952,0.328064,22.778320,24.682617,-4.614258
3282274693,-0.445801,-0.176025,0.873047,0.640869,0.541687,0.251770,22.778320,24.682617,-4.614258
3285277772,-0.448486,-0.170654,0.873779,0.488281,0.419617,0.350952,22.778320,24.682617,-4.614258
3288252133,-0.451904,-0.173828,0.869629,0.778198,0.587463,0.427246,22.778320,24.682617,-4.614258
3290767828,-0.450684,-0.176514,0.877930,0.190735,0.762939,0.480652,22.778320,24.682617,-4.614258
3293827933,-0.453125,-0.178223,0.877197,0.175476,0.671387,0.259399,22.412109,24.755859,-4.687500
3296846192,-0.450684,-0.173828,0.880371,0.205994,0.877380,0.320435,22.412109,24.755859,-4.687500
3299812348,-0.457031,-0.176758,0.868408,-0.045776,0.923157,0.205994,22.412109,24.755859,-4.687500
3302811735,-0.454346,-0.177002,0.878662,0.228882,0.732422,0.205994,22.412109,24.755859,-4.687500
3305901379,-0.449707,-0.178467,0.874023,0.091553,0.740051,0.183105,22.412109,24.755859,-4.687500
3308943843,-0.454102,-0.177002,0.867188,0.022888,0.679016,0.144958,22.412109,24.755859,-4.687500
3311884973,-0.452637,-0.187744,0.867432,0.534058,0.595093,0.045776,22.412109,24.755859,-4.687500
3314889694,-0.454346,-0.187988,0.873291,0.411987,0.717163,-0.213623,22.412109,24.902344,-3.955078
3317884568,-0.453125,-0.188477,0.870117,0.610352,0.427246,0.236511,22.412109,24.902344,-3.955078
3320863853,-0.448975,-0.193359,0.872803,0.602722,0.778198,-0.274658,22.412109,24.902344,-3.955078
3323368470,-0.447510,-0.195801,0.867920,1.029968,0.694275,-0.137329,22.412109,24.902344,-3.955078
3326415447,-0.446045,-0.194824,0.869629,0.732422,0.541687,-0.160217,22.412109,24.902344,-3.955078
3329371757,-0.442871,-0.201172,0.867676,0.679016,0.549316,0.000000,22.412109,24.902344,-3.955078
3332384272,-0.446533,-0.200684,0.876709,0.892639,0.488281,0.419617,22.412109,25.341797,-3.955078
3335418531,-0.444580,-0.203613,0.877197,0.892639,0.869751,0.244141,22.412109,25.341797,-4.248047
3338376482,-0.445068,-0.200195,0.865723,1.449585,0.511169,0.625610,22.412109,25.341797,-4.248047
3340867151,-0.446777,-0.207520,0.873047,1.159668,0.640869,0.549316,22.412109,25.341797,-4.248047
3343420179,-0.446289,-0.201416,0.870117,1.235962,0.625610,0.930786,22.412109,25.341797,-4.248047
3346920489,-0.443604,-0.198975,0.875732,1.472473,0.846863,0.885010,22.412109,25.341797,-4.248047
3349423876,-0.443848,-0.195313,0.876465,2.052307,1.190186,1.304626,22.412109,25.341797,-4.248047
3351965416,-0.444336,-0.194580,0.868408,1.716614,1.022339,1.220703,22.851563,24.609375,-3.515625
3354964804,-0.448730,-0.193115,0.870850,1.930237,1.541138,1.068115,22.851563,24.609375,-3.515625
3357966242,-0.449219,-0.185303,0.869141,2.120972,1.258850,1.258850,22.851563,24.609375,-3.515625
3360467167,-0.450684,-0.183350,0.864502,1.983643,1.083374,1.335144,22.851563,24.609375,-3.515625
3362925425,-0.451904,-0.177246,0.868408,1.800537,1.678467,1.091003,22.851563,24.609375,-3.515625
3365474761,-0.451660,-0.171387,0.870850,2.159119,1.342773,1.068115,22.851563,24.609375,-3.515625
3368013840,-0.455322,-0.169434,0.858887,2.059937,1.434326,0.976563,22.851563,24.609375,-3.515625
3371076817,-0.455322,-0.171631,0.864990,2.021790,1.457214,0.930786,22.851563,24.609375,-3.515625
3374077845,-0.456299,-0.167725,0.861328,2.105713,1.640320,0.923157,22.558594,24.902344,-4.101563
3377096924,-0.459961,-0.167480,0.855225,1.922607,1.708984,0.656128,22.558594,24.902344,-4.101563
3380104106,-0.462402,-0.165527,0.853027,1.823425,1.548767,0.587463,22.558594,24.902344,-4.101563
3383038263,-0.464111,-0.163818,0.860352,2.021790,1.396179,0.267029,22.558594,24.902344,-4.101563
3386149650,-0.460938,-0.167480,0.857422,1.808167,1.449585,0.373840,22.558594,24.902344,-4.101563
3389071908,-0.464355,-0.166748,0.857178,1.426697,1.144409,0.152588,22.558594,24.902344,-4.101563
3392052013,-0.464355,-0.161621,0.855957,1.464844,1.144409,0.305176,22.265625,25.048828,-4.248047
3395095708,-0.465088,-0.159180,0.854492,1.106262,1.083374,0.144958,22.265625,25.048828,-4.248047
3398052429,-0.461670,-0.161377,0.862061,1.129150,1.098633,0.038147,22.265625,25.048828,-4.248047
3400569764,-0.462402,-0.163818,0.856689,0.717163,0.808716,0.373840,22.265625,25.048828,-4.248047
3403582279,-0.465332,-0.162842,0.858398,0.663757,0.732422,0.144958,22.265625,25.048828,-4.248047
3406603410,-0.462402,-0.165039,0.864014,0.244141,0.801086,0.221252,22.265625,25.048828,-4.248047
3409627823,-0.460938,-0.168701,0.864014,0.274658,0.610352,0.022888,22.265625,25.048828,-4.248047
3412592338,-0.462646,-0.164063,0.858398,0.160217,0.724792,0.129700,22.705078,25.048828,-4.248047
3415626187,-0.460938,-0.167969,0.863281,0.099182,0.671387,0.114441,22.705078,25.048828,-4.248047
3418600548,-0.452148,-0.170166,0.858643,-0.099182,0.564575,-0.091553,22.705078,25.048828,-4.248047
3421597474,-0.456543,-0.169434,0.872070,-0.205994,0.473022,-0.022888,22.705078,25.048828,-4.248047
3424652245,-0.455566,-0.170654,0.869141,-0.205994,0.701904,0.137329,22.705078,25.048828,-4.248047
3427178196,-0.458740,-0.175293,0.863281,-0.366211,0.831604,-0.015259,22.705078,25.048828,-4.248047
3430113583,-0.454590,-0.174316,0.863770,-0.518799,0.961304,0.053406,22.705078,25.048828,-4.248047
3432627226,-0.452637,-0.174805,0.873779,-0.259399,0.701904,-0.358582,22.485352,24.536133,-3.881836
3435721793,-0.457275,-0.178711,0.868164,-0.511169,0.831604,-0.381470,22.485352,24.536133,-3.881836
3438710924,-0.458008,-0.177490,0.867920,-0.610352,1.075745,-0.335693,22.485352,24.536133,-3.881836
3441664772,-0.455811,-0.183350,0.872070,-0.373840,0.877380,-0.343323,22.485352,24.536133,-3.881836
3444663339,-0.458984,-0.188232,0.868408,-0.129700,0.823975,-0.465393,22.485352,24.536133,-3.881836
3447240161,-0.458252,-0.185303,0.868896,0.091553,1.007080,-0.465393,22.485352,24.536133,-3.881836
3450159138,-0.452148,-0.196777,0.868652,-0.160217,0.854492,-0.511169,22.485352,24.536133,-3.881836
3452710115,-0.454590,-0.197021,0.870605,-0.068665,0.846863,-0.732422,22.778320,24.682617,-4.321289
3455210629,-0.456055,-0.199463,0.866943,0.205994,1.007080,-0.328064,22.778320,24.682617,-4.321289
3458212478,-0.457520,-0.197266,0.873047,0.404358,1.029968,-0.381470,22.778320,24.682617,-4.321289
3461230737,-0.455566,-0.200439,0.871826,0.373840,1.113892,-0.381470,22.778320,24.682617,-4.321289
3464277304,-0.457031,-0.205811,0.872559,0.381470,0.999451,-0.350952,22.778320,24.829102,-4.174805
3467288178,-0.451660,-0.203125,0.869873,0.984192,1.205444,-0.297546,22.778320,24.829102,-4.174805
3470287155,-0.460938,-0.201660,0.864014,0.770569,1.197815,-0.427246,22.778320,24.829102,-4.174805
3473261516,-0.454590,-0.195068,0.867676,1.281738,1.106262,-0.183105,22.778320,24.829102,-4.028320
3475852698,-0.454346,-0.203857,0.872314,1.327515,1.083374,-0.015259,22.778320,24.829102,-4.028320
3479307059,-0.458740,-0.201416,0.868164,1.060486,1.144409,0.045776,22.778320,24.829102,-4.028320
3482287575,-0.456543,-0.197754,0.869141,1.457214,1.205444,0.061035,23.071289,24.682617,-4.614258
3485884296,-0.461670,-0.196533,0.864014,1.480103,1.358032,0.000000,23.071289,24.682617,-4.614258
3488875478,-0.460938,-0.195068,0.863037,1.686096,1.266479,0.297546,23.071289,24.682617,-4.614258
3491857634,-0.460938,-0.193115,0.862305,1.373291,1.190186,0.267029,22.558594,25.195313,-4.541016
3495294765,-0.456055,-0.187012,0.869141,1.907349,1.190186,0.358582,22.558594,25.195313,-4.541016
3497792408,-0.457275,-0.187012,0.856445,1.701355,1.144409,0.267029,22.558594,25.195313,-4.541016
3500344205,-0.458252,-0.185059,0.868652,1.434326,1.068115,0.396729,22.558594,25.195313,-4.541016
3503422361,-0.458252,-0.182373,0.860107,1.647949,0.915527,0.495911,22.485352,25.268555,-3.881836
3506370056,-0.455811,-0.183105,0.858154,1.441956,1.060486,0.381470,22.485352,25.268555,-3.881836
3509401033,-0.458008,-0.182373,0.863281,1.197815,0.900269,0.762939,22.485352,25.268555,-3.881836
3512407805,-0.460693,-0.182373,0.864502,1.312256,0.915527,0.640869,22.924805,24.536133,-4.321289
3514966576,-0.460449,-0.183594,0.858887,1.251221,0.854492,0.465393,22.924805,24.536133,-4.321289
3517869963,-0.456787,-0.188232,0.860352,1.052856,0.999451,0.450134,22.924805,24.536133,-4.321289
3520889863,-0.462158,-0.187256,0.855225,1.213074,0.816345,0.656128,22.924805,24.536133,-4.321289
3523387916,-0.458252,-0.190430,0.856445,1.152039,0.938416,0.404358,22.998047,24.316406,-4.394531
3525893354,-0.452881,-0.192627,0.864990,1.258850,0.778198,0.480652,22.998047,24.316406,-4.394531
3528397561,-0.459961,-0.190918,0.858643,1.312256,0.564575,0.282288,22.998047,24.316406,-4.394531
3530896845,-0.459473,-0.194336,0.855469,1.411438,0.633240,0.541687,22.998047,24.316406,-4.394531
3533393258,-0.459229,-0.194824,0.857422,1.426697,0.915527,0.358582,22.998047,24.316406,-4.394531
3535941362,-0.463135,-0.196533,0.857422,1.464844,0.923157,0.572205,22.998047,24.316406,-4.394531
3538448441,-0.459961,-0.193848,0.854248,1.495361,0.686646,0.381470,22.998047,24.316406,-4.394531
3541460546,-0.458984,-0.196289,0.861816,1.655579,0.602722,0.839233,22.631836,24.682617,-4.394531
3545003934,-0.460449,-0.198730,0.852783,1.701355,0.694275,0.549316,22.631836,24.682617,-4.907227
3548047629,-0.458496,-0.201172,0.855469,2.159119,0.503540,0.579834,22.631836,24.682617,-4.907227
3551052759,-0.455322,-0.199707,0.857178,2.334595,0.358582,0.701904,22.631836,24.682617,-4.907227
3554506711,-0.458008,-0.200195,0.858643,2.403259,0.549316,0.587463,22.631836,24.682617,-4.907227
3557468765,-0.454590,-0.202881,0.863037,2.830505,0.473022,0.869751,22.631836,24.682617,-4.907227
3560536254,-0.456055,-0.201172,0.860840,2.944946,0.549316,0.709534,22.631836,24.682617,-4.907227
3563512667,-0.458740,-0.193359,0.854980,3.242493,0.694275,0.427246,22.705078,25.195313,-4.541016
