
Run: 1 Realtime: 0 Accel sens: 8 Gyro sens: 1000

Time Captured,Accel X,Accel Y,Accel Z,Gyro X,Gyro Y,Gyro Z,Magn X,Magn Y,Magn Z
4076311,-0.967041,0.011230,-0.171875,-2.807617,-3.479004,0.915527,34.350586,31.713867,-1.098633
8057442,-0.970703,0.017090,-0.180176,-2.716064,-3.540039,1.220703,34.350586,31.713867,-1.098633
12380317,-0.977783,0.014160,-0.182129,-2.868652,-3.814697,1.586914,34.643555,31.567383,-0.659180
16378269,-0.981201,0.019043,-0.180420,-2.777100,-4.119873,1.525879,34.643555,31.567383,-0.659180
20320016,-0.981445,0.016113,-0.172119,-2.624512,-4.333496,1.983643,34.643555,31.567383,-0.659180
24528430,-0.982178,0.018311,-0.179932,-3.021240,-4.943848,1.892090,33.911133,31.713867,-0.659180
28781972,-0.983643,0.013428,-0.187500,-3.051758,-5.157471,2.349854,33.911133,31.713867,-0.659180
31828128,-0.979980,0.015137,-0.185547,-3.173828,-4.943848,2.166748,33.911133,31.713867,-0.659180
34910797,-0.981689,0.009033,-0.181885,-2.624512,-5.401611,2.563477,33.911133,31.713867,-0.659180
38962083,-0.977051,0.006836,-0.189209,-2.929688,-4.974365,2.593994,33.911133,31.713867,-0.659180
42975214,-0.976074,0.004150,-0.179932,-2.563477,-4.791260,2.960205,34.643555,32.006836,-0.952148
47595936,-0.970947,0.002441,-0.181152,-2.197266,-4.119873,2.777100,34.643555,32.006836,-0.952148
51959016,-0.963867,-0.001953,-0.186279,-1.342773,-3.356934,3.173828,34.423828,32.226563,-0.585938
55945481,-0.959473,-0.003174,-0.185303,-1.281738,-2.960205,2.716064,34.423828,32.226563,-0.585938
59958203,-0.962402,0.002930,-0.179932,-1.037598,-2.655029,2.807617,34.423828,32.226563,-0.585938
63879437,-0.963379,0.004883,-0.180176,-1.068115,-2.136230,2.655029,34.423828,32.226563,-0.585938
66928875,-0.964355,0.005859,-0.181152,-1.312256,-1.708984,2.349854,34.423828,32.226563,-0.585938
71065494,-0.971436,0.007324,-0.179688,-1.678467,-1.678467,2.197266,34.204102,31.860352,-0.952148
75117189,-0.971924,0.004639,-0.182373,-2.166748,-1.586914,2.014160,34.204102,31.860352,-0.952148
79513090,-0.969482,0.009033,-0.178955,-2.960205,-1.373291,1.617432,34.204102,31.860352,-0.952148
83210734,-0.962402,0.002441,-0.178711,-3.295898,-0.915527,1.190186,34.204102,31.860352,-0.952148
86898943,-0.963379,0.003906,-0.179199,-3.997803,-0.885010,1.037598,34.204102,31.860352,-0.952148
90938741,-0.965332,-0.005371,-0.184570,-3.662109,-0.823975,0.549316,33.618164,31.713867,-0.952148
94986334,-0.963379,-0.005859,-0.177490,-3.997803,-0.549316,0.518799,33.618164,31.713867,-0.952148
99086850,-0.966064,-0.003174,-0.184082,-3.723145,-0.366211,-0.091553,33.618164,31.713867,-0.952148
103595161,-0.970703,0.001953,-0.191895,-3.570557,-0.274658,-0.061035,34.277344,32.226563,-0.585938
107510652,-0.976563,-0.000977,-0.189209,-3.326416,0.457764,-0.488281,34.277344,32.226563,-0.585938
111038450,-0.986328,0.005127,-0.194824,-3.265381,0.579834,-0.823975,34.277344,32.226563,-0.585938
115135684,-0.985596,0.007813,-0.183594,-3.509521,1.007080,-0.732422,34.277344,32.226563,-0.585938
119128713,-0.989746,0.002197,-0.189453,-3.387451,1.159668,-0.976563,34.277344,32.226563,-0.585938
123241126,-0.987793,0.006348,-0.186035,-2.990723,2.136230,-0.671387,34.204102,31.274414,-0.366211
127193130,-0.983398,0.002686,-0.186279,-2.502441,2.319336,-0.640869,34.204102,31.274414,-0.366211
130924415,-0.984863,0.002686,-0.186523,-2.471924,2.777100,-0.885010,34.716797,31.787109,-0.878906
134958059,-0.983154,0.008545,-0.184570,-2.410889,3.234863,-0.885010,34.716797,31.787109,-0.878906
138935908,-0.980713,0.007080,-0.172119,-2.349854,3.509521,-1.220703,34.716797,31.787109,-0.878906
143352322,-0.983398,0.007324,-0.179199,-2.502441,4.089355,-1.373291,34.716797,31.787109,-0.878906
146732428,-0.987549,0.007568,-0.175537,-2.624512,4.058838,-1.800537,34.716797,31.787109,-0.878906
149908635,-0.990234,0.006348,-0.174561,-2.960205,4.241943,-1.831055,34.643555,31.713867,-0.659180
154639716,-0.991211,0.004395,-0.177734,-2.960205,4.302979,-1.953125,34.643555,31.713867,-0.659180
158610591,-0.990479,0.001221,-0.169434,-3.814697,4.455566,-2.532959,34.643555,31.713867,-0.659180
161655517,-0.986328,-0.003662,-0.172607,-4.211426,4.608154,-2.502441,34.643555,31.713867,-0.659180
165651007,-0.988770,-0.004395,-0.169434,-4.364014,4.730225,-3.173828,34.643555,31.713867,-0.659180
168609779,-0.990967,-0.009033,-0.177246,-4.852295,4.669189,-3.509521,34.716797,32.226563,-0.878906
172677475,-0.992432,-0.010742,-0.175293,-4.852295,4.699707,-3.875732,34.716797,32.226563,-0.878906
176678709,-0.990479,-0.021729,-0.178711,-5.157471,4.974365,-4.272461,34.716797,32.226563,-0.878906
180784558,-0.990967,-0.023193,-0.177979,-4.882813,5.432129,-4.669189,34.716797,31.933594,-0.732422
184713587,-0.984619,-0.034424,-0.184326,-4.089355,5.676270,-5.035400,34.716797,31.933594,-0.732422
187685897,-0.980713,-0.037354,-0.190186,-3.387451,5.950928,-5.737305,34.716797,31.933594,-0.732422
190711541,-0.976563,-0.037109,-0.186279,-3.112793,6.072998,-6.072998,34.716797,31.933594,-0.732422
193687543,-0.967285,-0.038086,-0.185059,-2.471924,6.347656,-6.317139,34.716797,31.933594,-0.732422
196686520,-0.966064,-0.038574,-0.189453,-2.319336,6.347656,-6.896973,34.716797,31.933594,-0.732422
200607344,-0.955811,-0.041504,-0.189697,-2.044678,6.500244,-7.537842,33.837891,31.787109,-0.292969
203597705,-0.951904,-0.042236,-0.184570,-1.403809,6.439209,-8.178711,33.837891,31.787109,-0.292969
207598119,-0.945068,-0.041504,-0.187012,-1.037598,6.835938,-8.483887,33.837891,31.787109,-0.292969
210613506,-0.937744,-0.043457,-0.187256,-0.549316,7.446289,-9.216309,33.837891,31.787109,-0.878906
213622329,-0.933350,-0.039307,-0.187988,-0.152588,7.659912,-9.552002,33.837891,31.787109,-0.878906
216631152,-0.927979,-0.041504,-0.187744,0.488281,8.026123,-10.070801,33.837891,31.787109,-0.878906
219589923,-0.924316,-0.044678,-0.191162,0.488281,8.697510,-10.345459,33.837891,31.787109,-0.878906
222610644,-0.919189,-0.043213,-0.189941,0.762939,9.399414,-10.681152,33.837891,31.787109,-0.878906
225628903,-0.910156,-0.040527,-0.190918,0.854492,9.765625,-11.474609,33.837891,31.787109,-0.878906
228665623,-0.906250,-0.035889,-0.190918,0.854492,10.192871,-11.993408,34.643555,31.713867,-0.512695
232442447,-0.899902,-0.033203,-0.195313,0.640869,10.467529,-12.542725,34.643555,31.713867,-0.512695
236447373,-0.886963,-0.029785,-0.196289,0.762939,11.291504,-13.336182,34.643555,31.713867,-0.512695
240435069,-0.864014,-0.035400,-0.193115,0.488281,12.329102,-14.038086,34.643555,31.713867,-0.512695
244451482,-0.848145,-0.047363,-0.191895,1.037598,12.847900,-13.977051,34.643555,31.713867,-0.512695
248433434,-0.833496,-0.056152,-0.193115,2.166748,13.488770,-14.373779,34.936523,31.860352,-1.098633
252542566,-0.815430,-0.061768,-0.198242,3.601074,13.916016,-14.617920,34.936523,31.860352,-1.098633
256503184,-0.795654,-0.055420,-0.189453,6.317139,14.495850,-15.106201,34.936523,31.860352,-1.098633
260495803,-0.774658,-0.059814,-0.188477,8.880615,14.556885,-15.289307,34.643555,31.860352,-0.805664
264450268,-0.749268,-0.061279,-0.173340,12.329102,15.197754,-15.594482,34.643555,31.860352,-0.805664
268448220,-0.725830,-0.071289,-0.170166,15.899658,15.686035,-14.831543,34.643555,31.860352,-0.805664
272455197,-0.695801,-0.068848,-0.169189,20.385742,15.930176,-14.282227,34.643555,31.860352,-0.805664
276458072,-0.674072,-0.070801,-0.164307,25.115967,16.265869,-14.099121,34.643555,31.860352,-0.805664
280451922,-0.650391,-0.064209,-0.155029,30.212402,16.113281,-13.641357,34.423828,31.787109,-1.171875
284479002,-0.629395,-0.058838,-0.140625,36.071777,15.716553,-13.427734,34.423828,31.787109,-1.171875
288470390,-0.602295,-0.050537,-0.138916,41.168213,15.502930,-13.305664,34.350586,31.420898,-1.098633
292481881,-0.579590,-0.049316,-0.130859,47.149658,14.831543,-12.969971,34.350586,31.420898,-1.098633
296489679,-0.542725,-0.046875,-0.114014,52.734375,14.221191,-11.718750,34.350586,31.420898,-1.098633
300559426,-0.502930,-0.054688,-0.110840,58.380127,13.671875,-10.681152,34.350586,31.420898,-1.098633
303624043,-0.443115,-0.055420,-0.107422,64.514160,13.214111,-8.483887,34.350586,31.420898,-1.098633
307580149,-0.390869,-0.051758,-0.080322,69.213867,12.695313,-7.110596,33.911133,32.006836,-0.659180
310631639,-0.300537,-0.042969,-0.047607,72.998047,11.840820,-4.302979,33.911133,32.006836,-0.659180
313626924,-0.278320,-0.034424,-0.036865,76.019287,12.115479,-1.708984,33.911133,32.006836,-0.659180
316606208,-0.208740,-0.022949,-0.032227,77.819824,11.932373,-0.335693,35.083008,30.981445,-1.098633
319604775,-0.177979,-0.012939,-0.026367,79.254150,11.718750,0.976563,35.083008,30.981445,-1.098633
322570931,-0.166992,0.013672,-0.011963,79.925537,11.047363,2.136230,35.083008,30.981445,-1.098633
325615856,-0.158936,0.037842,-0.006592,79.650879,10.986328,2.319336,35.083008,30.981445,-1.098633
328623449,-0.145020,0.063721,0.008545,78.613281,10.101318,1.953125,35.083008,30.981445,-1.098633
331626528,-0.108887,0.131104,0.017090,73.608398,8.880615,-1.556396,35.083008,30.981445,-1.098633
334652582,-0.097412,0.126953,0.026611,69.793701,9.094238,-4.028320,35.083008,30.981445,-1.098633
337642943,0.010986,0.010010,0.016602,68.939209,7.934570,-5.279541,34.570313,31.640625,-0.439453
340733407,0.039551,0.030762,0.009521,70.007324,8.483887,-5.096436,34.570313,31.640625,-0.439453
343673717,0.033203,0.034912,0.006348,70.098877,9.002686,-5.432129,34.570313,31.640625,-0.439453
346899566,0.028320,0.024414,-0.000488,70.281982,9.704590,-5.523682,34.570313,31.640625,-0.439453
349902646,0.025391,-0.006348,0.005859,70.281982,9.796143,-5.645752,34.570313,31.640625,-0.439453
352997622,0.015625,-0.028076,-0.000244,70.739746,9.674072,-5.889893,34.570313,31.640625,-0.439453
356935267,-0.020264,0.000488,-0.009277,71.075439,9.643555,-5.798340,34.716797,32.226563,-0.732422
359943269,-0.113281,0.009766,-0.024658,69.702148,7.934570,-4.852295,34.716797,32.226563,-0.732422
364037221,-0.057617,-0.002441,0.080811,70.495605,5.065918,-4.547119,34.716797,32.226563,-0.732422
367922763,0.021240,0.002441,-0.043701,71.258545,5.371094,-4.730225,34.936523,31.860352,-0.952148
371006253,0.064697,0.020020,-0.053955,71.197510,7.049561,-4.577637,34.936523,31.860352,-0.952148
374982871,0.024414,0.003174,-0.028320,71.105957,7.843018,-4.821777,34.936523,31.860352,-0.952148
377553540,-0.002686,-0.004395,0.052979,71.624756,6.103516,-4.852295,34.936523,31.860352,-0.952148
380583696,0.037354,-0.010254,-0.021729,72.052002,6.835938,-4.699707,34.936523,31.860352,-0.952148
384572623,0.031006,-0.004883,-0.021240,72.357178,7.110596,-4.913330,34.936523,31.860352,-0.952148
387545343,0.033936,0.005859,-0.023438,72.601318,7.629395,-4.852295,34.497070,31.567383,-0.366211
390641141,0.038574,-0.000244,-0.038818,72.906494,7.873535,-4.730225,34.497070,31.567383,-0.366211
394696528,0.037598,-0.002441,-0.036621,73.333740,7.934570,-4.882813,34.497070,31.567383,-0.366211
398636224,0.012451,-0.004639,0.004639,73.608398,8.148193,-4.547119,35.009766,31.787109,0.000000
402661253,0.008545,-0.004395,0.018799,74.401855,7.965088,-4.486084,35.009766,31.787109,0.000000
405675820,0.008057,0.005371,0.024170,74.188232,7.995605,-4.333496,35.009766,31.787109,0.000000
408808130,0.006348,0.007813,0.021240,74.951172,8.422852,-4.577637,35.009766,31.787109,0.000000
411862902,0.003418,0.002197,0.019287,74.981689,8.819580,-4.547119,35.009766,31.787109,0.000000
414845878,0.009766,-0.003418,0.010498,75.531006,8.697510,-4.638672,35.009766,31.787109,0.000000
417850189,0.010010,-0.003418,0.001465,76.049805,8.758545,-4.577637,34.716797,32.373047,0.146484
420934499,0.014160,-0.003662,-0.007324,75.927734,9.216309,-4.516602,34.716797,32.373047,0.146484
424894297,0.002441,-0.007080,0.024170,76.477051,9.307861,-4.577637,34.716797,32.373047,0.146484
428808967,0.014404,0.007568,0.006592,76.965332,9.399414,-4.394531,34.716797,32.373047,0.146484
431789892,0.007813,0.002441,0.009521,77.362061,9.918213,-4.272461,34.716797,32.373047,0.146484
435820255,0.008301,-0.000488,0.010498,77.636719,10.040283,-4.150391,35.156250,32.373047,0.146484
439822719,0.010742,0.005859,0.003174,78.186035,10.040283,-4.028320,35.156250,32.373047,0.439453
444820057,0.012695,0.003418,-0.002441,78.521729,10.437012,-3.967285,35.156250,32.373047,0.439453
447851444,0.006592,-0.001221,0.003174,78.948975,10.559082,-3.967285,34.716797,32.373047,0.000000
451645088,0.006592,0.004639,0.003174,79.467773,10.681152,-4.058838,34.716797,32.373047,0.000000
455594630,0.004395,0.000488,0.001953,79.742432,10.772705,-3.692627,34.716797,32.373047,0.000000
459644684,0.007813,0.003906,0.000488,80.169678,10.864258,-3.784180,34.716797,32.373047,0.000000
462603046,0.010254,0.006592,0.003662,80.810547,11.199951,-3.448486,34.716797,32.373047,0.000000
465636074,0.007080,0.002197,0.006592,80.780029,11.444092,-3.234863,34.716797,32.226563,0.439453
468630538,0.006836,0.003418,-0.000732,81.878662,11.322021,-3.021240,34.716797,32.226563,0.439453
471809207,0.007568,0.003662,-0.001465,81.390381,11.566162,-3.356934,34.716797,32.226563,0.439453
474790953,0.006348,0.001709,0.007813,82.153320,11.810303,-3.021240,34.716797,32.958984,0.000000
477813725,0.005615,0.003418,0.001709,82.519531,11.749268,-2.807617,34.716797,32.958984,0.000000
480975163,0.005859,0.004150,0.001221,82.946777,11.749268,-2.807617,34.716797,32.958984,0.000000
485487577,0.004395,0.003174,-0.001953,83.007813,11.901855,-2.563477,34.716797,32.958984,0.000000
489561017,0.001221,0.006836,0.002930,83.801270,12.298584,-2.380371,34.716797,32.958984,0.000000
493565943,0.001465,0.003418,0.003662,84.106445,12.329102,-2.044678,34.716797,32.958984,0.000000
498042254,0.002197,0.005615,0.007568,84.686279,12.237549,-2.044678,34.570313,33.105469,-0.439453
502521027,0.004150,0.002930,-0.001221,84.625244,12.420654,-1.953125,34.570313,33.105469,-0.439453
506591595,0.000244,0.006348,0.004150,85.906982,12.542725,-1.586914,34.570313,33.105469,-0.439453
510751598,0.002441,0.003174,0.003418,86.120605,12.695313,-1.403809,34.570313,33.105469,-0.439453
513758780,-0.001221,0.010742,0.000977,86.395264,12.817383,-1.159668,34.570313,33.105469,-0.439453
516772116,0.004883,0.005615,-0.001465,86.517334,13.031006,-0.885010,34.057617,32.592773,-0.805664
519844118,-0.000488,0.006348,-0.000488,86.883545,12.634277,-0.701904,34.057617,32.592773,-0.805664
522899711,-0.005127,0.007813,-0.002197,87.036133,12.939453,-0.488281,34.057617,32.592773,-0.805664
527834279,0.000000,0.009033,-0.001465,87.219238,13.061523,-0.457764,34.423828,32.080078,-1.171875
531141769,-0.001465,0.009033,0.002441,88.104248,12.939453,-0.091553,34.423828,32.080078,-1.171875
534841874,-0.001953,0.007080,-0.003662,88.287354,13.397217,0.091553,34.423828,32.080078,-1.171875
537841261,-0.001465,0.007568,0.003174,88.684082,13.336182,0.427246,34.423828,32.080078,-1.171875
540857469,-0.004883,0.010498,0.003662,88.592529,13.336182,0.579834,34.423828,32.080078,-1.171875
543863010,-0.004395,0.005615,0.003418,88.958740,13.519287,0.518799,34.716797,31.933594,-1.171875
546697063,-0.007568,0.009766,0.002197,89.111328,13.641357,0.976563,34.716797,31.933594,-1.171875
549783835,-0.006104,0.011230,0.006592,89.050293,13.488770,1.220703,34.716797,31.933594,-1.171875
553268556,-0.005615,0.008301,0.004150,89.660645,13.702393,1.586914,34.716797,31.933594,-1.171875
557313277,-0.005615,0.010742,0.004150,89.874268,13.824463,1.525879,34.497070,31.860352,-0.952148
561381793,-0.005127,0.011230,0.000244,89.935303,13.854980,2.105713,34.497070,31.860352,-0.952148
565446617,-0.005859,0.013184,-0.003906,89.904785,13.916016,2.349854,34.497070,31.860352,-0.952148
569460569,-0.007080,0.008301,0.000977,90.637207,14.007568,2.716064,34.497070,31.860352,-0.952148
573591855,-0.003662,0.017578,0.001221,90.576172,14.282227,3.112793,34.497070,31.860352,-0.952148
577693191,-0.006104,0.016357,-0.000488,90.637207,14.251709,3.417969,34.497070,31.567383,-0.219727
580844784,-0.007324,0.013184,-0.005615,90.576172,14.404297,3.692627,34.497070,31.567383,-0.219727
585538941,-0.007568,0.014648,0.000732,90.423584,14.495850,4.089355,34.497070,31.567383,-0.219727
589641919,-0.072754,-0.004395,-0.053955,90.179443,15.197754,4.089355,34.497070,31.567383,-0.219727
593659153,-0.012695,0.014648,0.003906,89.965820,14.129639,4.791260,34.497070,31.567383,-0.219727
596853412,-0.018311,0.019775,-0.007813,89.721680,15.075684,4.547119,34.863281,31.494141,0.146484
601474955,-0.012207,0.023682,-0.021484,88.958740,15.258789,5.310059,34.863281,31.494141,0.146484
605471676,-0.010742,0.021973,-0.004395,88.928223,14.739990,4.760742,34.716797,31.787109,0.292969
609701423,-0.001709,0.026611,-0.016602,88.348389,15.533447,5.554199,34.716797,31.787109,0.292969
613675580,-0.041260,-0.012695,0.038330,88.409424,16.632080,6.591797,34.716797,31.787109,0.292969
617630045,0.016602,0.033203,-0.017090,87.310791,16.326904,4.852295,34.716797,31.787109,0.292969
621762151,-0.083252,-0.016113,0.093506,84.259033,11.413574,3.112793,34.716797,31.787109,0.292969
624770563,-0.091309,0.039551,0.012451,81.054688,11.322021,2.655029,34.350586,31.713867,0.366211
627714566,-0.130615,0.051514,0.030029,78.491211,11.169434,0.579834,34.350586,31.713867,0.366211
630987594,-0.085205,0.090088,0.031006,75.927734,16.265869,-4.180908,34.350586,31.713867,0.366211
635037239,-0.047119,0.075195,0.055664,73.486328,8.422852,-3.021240,33.837891,32.519531,0.732422
638941242,-0.005127,-0.032471,-0.019775,73.120117,10.345459,-4.364014,33.837891,32.519531,0.732422
642991707,-0.043945,-0.066895,0.009521,73.211670,6.805420,-4.821777,33.837891,32.519531,0.732422
646993351,-0.019043,-0.048828,-0.022705,73.150635,12.817383,-5.981445,33.837891,32.519531,0.732422
650979816,-0.003662,0.005127,0.016602,73.394775,7.293701,-5.920410,33.837891,32.519531,0.732422
653986587,0.005859,0.017090,-0.017090,73.608398,9.643555,-5.920410,34.204102,32.006836,0.512695
658004232,-0.007324,-0.020508,0.001221,74.645996,10.803223,-6.011963,34.204102,32.006836,0.512695
662002184,-0.010254,-0.031006,0.010010,77.117920,11.352539,-5.950928,34.204102,32.006836,0.512695
665986187,-0.003174,-0.045410,0.004150,79.040527,9.643555,-5.584717,34.204102,32.006836,0.512695
668961779,-0.011230,-0.046631,0.000488,80.902100,10.192871,-6.011963,34.204102,32.006836,0.512695
671961987,-0.003418,-0.028076,-0.019775,81.420898,10.559082,-6.072998,33.618164,32.739258,0.512695
674975733,-0.011719,-0.008057,-0.036133,81.787109,11.840820,-4.791260,33.618164,32.739258,0.512695
677445889,-0.261719,0.747070,-1.154541,73.577881,36.621094,9.368896,33.618164,32.739258,0.512695
681530815,-2.556885,1.426758,-1.420898,75.500488,63.568115,67.565918,33.618164,32.739258,0.512695
685562408,-8.000000,1.453125,-6.209473,7.202148,41.351318,121.704102,34.716797,32.519531,1.171875
689595642,-8.000000,-0.755371,-5.768311,-145.996094,200.592041,67.596436,34.716797,32.519531,1.171875
693795851,-8.000000,-3.641846,-3.278320,-158.325195,233.917236,68.389893,34.716797,32.519531,1.171875
697788469,-8.000000,-4.314697,-2.556396,-75.805664,300.598145,96.984863,34.716797,32.519531,1.171875
701628062,-8.000000,-3.156738,-1.684326,-29.998779,299.804688,114.013672,34.716797,32.519531,1.171875
705749502,-8.000000,-1.966309,-1.268555,-22.338867,287.597656,122.680664,34.423828,32.519531,-2.490234
709729813,-8.000000,-1.322510,-1.214600,-40.222168,269.256592,130.218506,34.423828,32.519531,-2.490234
713742944,-8.000000,-1.001465,-1.457520,-66.467285,240.814209,135.284424,34.423828,32.958984,-3.662109
716764485,-8.000000,-0.810547,-1.855713,-92.773438,215.545654,137.786865,34.423828,32.958984,-3.662109
719687154,-8.000000,-0.777588,-2.018799,-105.651855,199.951172,140.655518,34.423828,32.958984,-3.662109
723743773,-7.790527,-0.716309,-2.044189,-112.304688,186.370850,139.312744,34.423828,32.958984,-3.662109
727828699,-6.184082,-0.572998,-1.958252,-113.067627,175.048828,143.768311,34.423828,32.958984,-3.662109
732799370,-4.895996,-0.445801,-1.686279,-108.398438,157.836914,146.667480,34.423828,32.958984,-3.662109
735754039,-3.618164,-0.344727,-1.417725,-99.151611,146.697998,151.763916,32.885742,34.204102,-4.760742
738838349,-3.008789,-0.269287,-1.222168,-94.573975,139.770508,154.327393,32.885742,34.204102,-4.760742
743842661,-2.502197,-0.246094,-1.052246,-91.491699,130.645752,155.181885,32.885742,34.204102,-4.760742
748739896,-1.811523,-0.151367,-0.910400,-84.716797,119.812012,155.975342,32.885742,34.204102,-4.760742
752725950,-1.310059,-0.132080,-0.774170,-79.742432,114.196777,154.052734,31.420898,33.471680,-5.786133
755761440,-0.983398,-0.121094,-0.716553,-75.500488,109.039307,152.252197,31.420898,33.471680,-5.786133
759177238,-0.794189,-0.127197,-0.658203,-72.021484,108.978271,152.130127,31.420898,33.471680,-5.786133
763172318,-0.636719,-0.092529,-0.613525,-68.237305,107.421875,152.191162,30.395508,33.764648,-5.786133
767128014,-0.506592,-0.118408,-0.471924,-63.812256,110.198975,150.451660,30.395508,33.764648,-5.786133
771551812,-0.379639,-0.142822,-0.403320,-59.631348,116.241455,148.468018,30.395508,33.764648,-5.786133
775283507,-0.257080,-0.171387,-0.295654,-53.131104,121.612549,147.003174,30.395508,33.764648,-5.786133
778839613,-0.194824,-0.180176,-0.228760,-46.478271,124.298096,146.514893,30.395508,33.764648,-5.786133
782206590,-0.100830,-0.185059,-0.219238,-39.581299,128.112793,146.118164,29.736328,33.105469,-5.419922
786194286,-0.084717,-0.174316,-0.159424,-33.233643,128.692627,145.446777,29.736328,33.105469,-5.419922
790217263,-0.048096,-0.147461,-0.116699,-25.360107,130.340576,146.270752,29.736328,33.105469,-5.419922
794210292,-0.038330,-0.051758,-0.097168,-21.575928,135.253906,147.216797,28.930664,33.471680,-6.665039
798265680,-0.037354,0.027588,-0.047119,-19.500732,132.476807,145.233154,28.930664,33.471680,-6.665039
802279222,-0.038574,0.058350,-0.007080,-19.927979,129.577637,142.974854,28.930664,33.471680,-6.665039
806298917,-0.025879,0.077148,-0.086914,-21.545410,135.528564,144.409180,28.930664,33.471680,-6.665039
810319023,-0.091553,-0.034424,0.011230,-20.874023,136.291504,142.761230,28.930664,33.471680,-6.665039
814217283,-0.032715,-0.021240,-0.057373,-18.310547,133.666992,143.432617,27.978516,33.837891,-7.617188
818593902,-0.055420,-0.013916,-0.022217,-16.143799,136.840820,143.218994,27.978516,33.837891,-7.617188
822409290,-0.064941,-0.032227,-0.005859,-13.305664,136.657715,143.005371,27.978516,33.837891,-7.617188
825684780,-0.052002,-0.031006,-0.033447,-10.620117,135.894775,142.547607,27.978516,33.837891,-7.617188
828800269,-0.047363,-0.025879,-0.047607,-8.911133,137.207031,142.730713,27.978516,33.837891,-7.617188
831791041,-0.052490,-0.018311,-0.040771,-7.293701,138.732910,142.730713,26.806641,32.958984,-8.935547
834922941,-0.055664,-0.004639,-0.040527,-6.530762,139.617920,142.456055,26.806641,32.958984,-8.935547
838628380,-0.057373,0.013428,-0.029297,-5.615234,138.763428,141.876221,26.806641,32.958984,-8.935547
841755357,-0.053467,0.011719,-0.034180,-5.035400,139.770508,141.998291,26.293945,33.032227,-9.008789
844841308,-0.059326,0.012939,-0.025391,-4.516602,139.984131,141.235352,26.293945,33.032227,-9.008789
847909208,-0.054688,0.002197,-0.034180,-3.723145,140.502930,141.052246,26.293945,33.032227,-9.008789
852635366,-0.060303,0.002686,-0.021729,-3.173828,140.472412,140.747070,26.293945,33.032227,-9.008789
856783061,-0.065186,0.001221,-0.015625,-1.892090,140.594482,139.678955,26.293945,33.032227,-9.008789
859720090,-0.065186,0.010010,-0.011719,-1.373291,141.174316,139.190674,24.462891,32.519531,-10.400391
863818554,-0.065918,0.014648,-0.018066,-1.281738,140.930176,138.763428,24.462891,32.519531,-10.400391
866775275,-0.069824,0.010498,-0.012695,-0.579834,141.174316,137.878418,24.462891,32.519531,-10.400391
869644200,-0.065674,0.013672,-0.016113,-0.854492,141.021729,137.573242,24.829102,32.446289,-10.620117
872835998,-0.063232,0.019775,-0.010986,-0.640869,141.021729,136.962891,24.829102,32.446289,-10.620117
875665949,-0.068604,0.028076,-0.014160,-0.976563,140.716553,136.383057,24.829102,32.446289,-10.620117
878818772,-0.067139,0.025879,-0.008789,-0.854492,140.380859,135.284424,24.829102,32.446289,-10.620117
881800518,-0.064209,0.026123,-0.007813,-1.068115,140.350342,134.918213,24.829102,32.446289,-10.620117
884887290,-0.072754,0.028809,-0.013672,-1.251221,140.533447,134.338379,24.829102,32.446289,-10.620117
888770780,-0.069580,0.028564,-0.006104,-1.312256,140.594482,133.514404,24.829102,32.446289,-10.620117
891883398,-0.064209,0.024902,-0.011475,-1.617432,140.350342,132.843018,23.217773,31.567383,-11.206055
895060426,-0.063232,0.030273,-0.018311,-2.227783,140.716553,132.202148,23.217773,31.567383,-11.206055
899067404,-0.064941,0.036621,-0.012451,-2.197266,139.862061,131.622314,23.217773,31.567383,-11.206055
903189253,-0.059570,0.033203,-0.020752,-2.838135,139.984131,130.889893,23.217773,31.567383,-11.206055
907367718,-0.064209,0.041016,-0.019531,-3.784180,139.831543,130.249023,23.217773,31.567383,-11.206055
910998901,-0.067627,0.036377,-0.006836,-4.394531,139.709473,128.997803,23.217773,31.274414,-13.110352
915117879,-0.062256,0.048096,-0.012939,-5.706787,139.648438,128.326416,23.217773,31.274414,-13.110352
919087933,-0.057129,0.035889,-0.024902,-6.225586,139.190674,127.319336,23.217773,31.274414,-13.110352
922775731,-0.061523,0.032227,-0.020996,-6.866455,138.793945,126.556396,22.705078,30.322266,-13.623047
925816964,-0.062744,0.034912,-0.023438,-7.324219,138.305664,125.579834,22.705078,30.322266,-13.623047
928776146,-0.062256,0.044434,-0.024902,-8.087158,138.275146,125.396729,22.705078,30.322266,-13.623047
931810405,-0.065674,0.042236,-0.027100,-8.575439,137.908936,124.481201,22.705078,30.322266,-13.623047
934890202,-0.064209,0.040771,-0.017090,-9.094238,138.061523,123.992920,22.705078,30.322266,-13.623047
937840769,-0.068604,0.034668,-0.019043,-9.735107,137.695313,123.260498,22.705078,30.322266,-13.623047
940865592,-0.066162,0.027832,-0.007813,-9.948730,136.962891,122.894287,20.874023,29.809570,-13.549805
943852671,-0.063477,0.034912,-0.014893,-10.406494,136.718750,122.131348,20.874023,29.809570,-13.549805
946862725,-0.069336,0.032471,-0.014404,-10.772705,135.986328,121.673584,20.874023,29.809570,-13.549805
949818215,-0.064697,0.038330,-0.020752,-11.413574,136.535645,121.093750,21.459961,29.809570,-15.307617
952762217,-0.060791,0.034912,-0.016357,-11.810303,136.077881,120.605469,21.459961,29.809570,-15.307617
955793604,-0.064941,0.030762,-0.012939,-11.871338,136.016846,119.812012,21.459961,29.809570,-15.307617
959002633,-0.061279,0.024658,-0.016846,-11.871338,135.101318,119.598389,21.459961,29.809570,-15.307617
962975149,-0.055908,0.020508,-0.025146,-12.237549,135.131836,118.957520,21.459961,29.809570,-15.307617
967249203,-0.059570,0.026855,-0.020996,-12.329102,134.552002,118.041992,21.459961,29.809570,-15.307617
970798745,-0.058350,0.030029,-0.019775,-13.000488,134.338379,117.675781,20.434570,29.077148,-16.186523
974004491,-0.050293,0.026367,-0.023682,-12.542725,134.521484,117.431641,20.434570,29.077148,-16.186523
977824802,-0.061768,0.018555,-0.011230,-12.329102,133.148193,116.516113,20.434570,29.077148,-16.186523
981344394,-0.050537,0.008301,-0.025635,-11.871338,134.887695,116.149902,20.434570,29.077148,-16.186523
985066244,-0.054199,0.010254,-0.009033,-10.925293,133.636475,115.570068,20.434570,29.077148,-16.186523
988771683,-0.014404,0.035400,-0.101318,-12.329102,142.120361,116.729736,19.702148,28.051758,-16.333008
991882249,-0.023438,0.070068,-0.095703,-11.901855,139.801025,115.600586,19.702148,28.051758,-16.333008
995747278,0.008545,0.118652,-0.131104,-14.282227,146.423340,117.034912,19.702148,28.051758,-16.333008
998793024,0.071045,0.201904,-0.293945,-18.554688,154.327393,118.408203,19.262695,27.905273,-16.772461
1002738463,0.104248,0.247803,-0.392578,-22.369385,162.994385,120.483398,19.262695,27.905273,-16.772461
1006242056,0.203857,0.344482,-0.665527,-30.090332,184.082031,123.718262,19.262695,27.905273,-16.772461
1010299085,0.257080,0.425049,-0.869385,-37.322998,194.000244,126.007080,19.262695,27.905273,-16.772461
1013821960,0.353271,0.570801,-1.212158,-47.760010,221.313477,133.453369,19.262695,27.905273,-16.772461
1017494578,0.391602,0.668213,-1.412109,-59.173584,243.988037,140.167236,19.262695,27.905273,-16.772461
1021715710,0.442383,0.961426,-1.784912,-76.568604,271.911621,144.744873,18.090820,26.733398,-17.504883
1024902174,0.416748,1.075439,-2.011475,-101.379395,311.950684,156.188965,18.090820,26.733398,-17.504883
1028777459,0.458496,1.206787,-2.267822,-119.567871,338.165283,165.710449,18.017578,25.488281,-17.578125
1031780538,0.411133,1.357666,-2.524902,-145.538330,374.908447,178.863525,18.017578,25.488281,-17.578125
1035012951,0.290771,1.500000,-2.622314,-166.412354,389.617920,186.828613,18.017578,25.488281,-17.578125
1039054391,0.176514,1.587158,-2.809814,-192.077637,409.240723,198.730469,18.017578,25.488281,-17.578125
1042685163,-0.011230,1.677734,-2.914063,-224.060059,427.642822,215.270996,18.017578,25.488281,-17.578125
1046723730,-0.167725,1.780518,-2.947266,-255.767822,445.068359,229.949951,18.017578,25.488281,-17.578125
1050748759,-0.405518,1.799072,-2.894531,-292.388916,464.508057,248.077393,15.820313,23.437500,-18.310547
1054766814,-0.601318,1.848145,-2.853516,-331.115723,491.912842,266.845703,15.820313,23.437500,-18.310547
1058747535,-0.818115,1.906250,-2.812256,-372.131348,523.803711,287.506104,15.820313,23.437500,-18.310547
1062664666,-0.997070,1.847900,-2.721680,-410.858154,545.989990,310.546875,15.820313,23.437500,-18.310547
1066790618,-1.070313,1.775391,-2.779541,-444.519043,563.262939,332.611084,15.820313,23.437500,-18.310547
1069744467,-1.093994,1.747559,-2.759277,-475.524902,578.308105,359.893799,13.476563,19.482422,-18.603516
1073714522,-1.080322,1.739014,-2.638672,-494.201660,585.021973,380.157471,13.476563,19.482422,-18.603516
1076799242,-0.971924,1.684326,-2.703125,-515.991211,595.764160,408.355713,12.231445,16.918945,-18.090820
1081778938,-0.928955,1.720703,-2.639404,-530.303955,601.013184,431.060791,12.231445,16.918945,-18.090820
1084798428,-0.864502,1.701660,-2.417725,-549.957275,601.165771,468.170166,12.231445,16.918945,-18.090820
1088728688,-0.757813,1.530273,-2.626465,-557.403564,619.689941,488.433838,12.231445,16.918945,-18.090820
1092767665,-0.778076,1.597900,-2.380859,-566.284180,618.560791,519.104004,12.231445,16.918945,-18.090820
1096784079,-0.698486,1.684570,-2.597900,-578.704834,636.138916,547.088623,12.231445,16.918945,-18.090820
1099815056,-0.773438,1.793457,-2.418701,-594.238281,640.258789,572.204590,8.642578,11.279297,-15.380859
1102555571,-0.816650,1.987061,-2.279053,-613.403320,646.087646,586.822510,8.642578,11.279297,-15.380859
1105735881,-0.845215,1.984131,-2.124023,-629.760742,639.556885,594.787598,8.642578,11.279297,-15.380859
1109767884,-0.874512,1.803955,-1.979492,-647.521973,631.866455,598.876953,8.129883,7.690430,-13.110352
1112774246,-1.015381,1.443115,-1.716553,-661.315918,607.543945,598.236084,8.129883,7.690430,-13.110352
1115838864,-1.117188,0.883545,-1.486328,-655.822754,588.531494,582.641602,8.129883,7.690430,-13.110352
1118809943,-1.264404,-0.176758,-1.111328,-644.592285,491.912842,509.765625,8.129883,7.690430,-13.110352
1121808099,-1.458496,-0.822754,-0.102539,-614.837646,460.937500,447.814941,8.129883,7.690430,-13.110352
1124788204,-1.412109,-1.065918,0.569824,-565.490723,336.486816,384.002686,8.129883,7.690430,-13.110352
1128546567,-0.458252,-0.737549,0.617188,-515.197754,260.681152,341.979980,7.690430,1.977539,-8.129883
1132533442,0.396729,-0.165283,0.282959,-479.339600,200.408936,311.737061,7.690430,1.977539,-8.129883
1136520727,0.797852,0.081543,-0.034180,-464.080811,172.088623,280.548096,7.690430,1.977539,-8.129883
1140661448,0.873535,0.209717,0.064697,-461.914063,135.467529,249.786377,7.690430,1.977539,-8.129883
1143660425,1.290771,0.179443,0.070557,-463.104248,161.834717,220.642090,7.690430,1.977539,-8.129883
1146638069,1.430176,0.130371,0.286133,-458.129883,133.850098,190.338135,7.910156,0.439453,-3.222656
1149662481,1.850342,-0.180664,0.172363,-447.082520,119.293213,161.621094,7.910156,0.439453,-3.222656
1153477459,2.269287,-0.243408,0.126953,-431.854248,126.739502,130.035400,7.910156,0.439453,-3.222656
1157569770,2.552979,-0.425537,0.382324,-404.815674,113.922119,91.125488,8.203125,-0.292969,-1.318359
1161604645,2.791992,-0.436523,0.483398,-367.645264,116.699219,52.276611,8.203125,-0.292969,-1.318359
1165785982,2.758789,-0.234619,0.395508,-334.686279,115.295410,32.501221,8.203125,-0.292969,-1.318359
1169729370,2.325439,-0.037354,0.430908,-308.288574,124.298096,20.751953,8.203125,-0.292969,-1.318359
1174727938,2.011230,0.055420,0.299316,-287.048340,126.464844,22.247314,8.203125,-0.292969,-1.318359
1177820863,1.727295,0.171143,0.098145,-271.575928,135.681152,29.876709,9.082031,-0.878906,1.318359
1181793379,1.410645,0.171631,0.212402,-263.793945,139.923096,34.484863,9.082031,-0.878906,1.318359
1185822101,1.212891,-0.005127,0.166748,-249.786377,142.639160,40.252686,9.082031,-0.878906,1.318359
1190033386,0.968750,-0.120361,0.101074,-231.719971,143.707275,47.088623,9.155273,-0.512695,2.124023
1194033389,0.812500,-0.121094,0.129150,-214.019775,146.209717,52.734375,9.155273,-0.512695,2.124023
1198108470,0.671143,-0.118164,0.082275,-198.394775,146.331787,57.189941,9.155273,-0.512695,2.124023
1202651243,0.553223,-0.095947,0.129395,-184.478760,145.690918,60.546875,9.155273,-0.512695,2.124023
1206777605,0.463379,-0.105469,0.096924,-171.691895,147.186279,62.408447,10.180664,-0.952148,4.321289
1210813711,0.406494,-0.086914,0.070557,-161.407471,146.362305,63.415527,10.180664,-0.952148,4.321289
1215799151,0.377686,-0.075684,0.088867,-152.526855,146.423340,64.331055,10.180664,-0.952148,4.321289
1218924077,0.356445,-0.053467,0.093750,-142.028809,146.789551,65.673828,10.180664,-0.952148,4.321289
1222967157,0.348389,-0.047363,0.052246,-136.322021,147.521973,67.504883,10.180664,-0.952148,4.321289
1226912596,0.336426,-0.046631,0.075928,-128.997803,148.559570,69.213867,10.253906,-0.439453,5.419922
1230727163,0.336914,0.002686,0.061523,-122.650146,151.794434,71.868896,10.253906,-0.439453,5.419922
1234007166,0.325439,-0.003906,0.099121,-117.401123,152.923584,74.890137,10.253906,-0.439453,5.419922
1238203272,0.343506,0.009033,0.060547,-113.342285,155.670166,77.758789,10.839844,-0.732422,6.298828
1242748506,0.344727,0.024170,0.083496,-108.428955,157.775879,81.787109,10.839844,-0.732422,6.298828
1247463177,0.358643,0.001709,0.054932,-103.393555,161.437988,85.998535,10.839844,-0.732422,6.298828
1251415590,0.358643,0.028809,0.056152,-99.243164,164.855957,90.332031,10.839844,-0.732422,6.298828
1255434055,0.344482,0.036133,0.083008,-95.367432,166.717529,93.048096,11.352539,-1.098633,7.690430
1259440623,0.355713,0.026855,0.077881,-92.376709,169.311523,95.947266,11.352539,-1.098633,7.690430
1263458677,0.352051,0.020508,0.083984,-89.324951,171.630859,97.808838,11.352539,-1.098633,7.690430
1267495604,0.361084,0.007568,0.089111,-86.669922,174.316406,98.754883,11.572266,-0.439453,8.056641
1271460325,0.369385,0.001465,0.089355,-84.442139,176.910400,99.060059,11.572266,-0.439453,8.056641
1275576431,0.369873,-0.001221,0.090332,-82.153320,179.412842,98.785400,11.572266,-0.439453,8.056641
1279569049,0.388916,-0.036133,0.104248,-78.460693,182.220459,97.442627,11.572266,-0.439453,8.056641
1283610489,0.417236,-0.050049,0.102051,-74.829102,184.875488,95.336914,11.572266,-0.439453,8.056641
1287594082,0.443359,-0.044189,0.131104,-71.136475,188.171387,93.292236,12.744141,0.146484,9.814453
1291610495,0.491699,-0.041016,0.163574,-66.955566,190.795898,91.522217,12.744141,0.146484,9.814453
1295505062,0.525635,-0.047119,0.167969,-63.110352,194.427490,88.897705,12.744141,0.146484,9.814453
1299489886,0.562256,-0.036133,0.185547,-60.028076,198.913574,86.547852,12.744141,0.146484,9.814453
1303341377,0.597656,-0.034912,0.188721,-56.823730,203.063965,83.862305,12.744141,0.146484,9.814453
1307354508,0.641113,-0.015869,0.210693,-54.382324,208.526611,81.909180,12.597656,0.585938,10.839844
1311437794,0.679688,-0.010010,0.179688,-52.001953,214.050293,79.437256,12.597656,0.585938,10.839844
1315755746,0.713379,-0.019775,0.194092,-47.821045,221.832275,77.545166,13.842773,1.098633,11.059570
1319396774,0.757324,0.017334,0.194824,-45.593262,229.705811,76.110840,13.842773,1.098633,11.059570
1323366419,0.759277,0.010498,0.216553,-44.189453,235.168457,74.340820,13.842773,1.098633,11.059570
1327428371,0.750977,0.030518,0.286133,-42.175293,242.095947,72.418213,13.842773,1.098633,11.059570
1330610322,0.799805,0.045654,0.195068,-41.778564,251.983643,70.770264,13.842773,1.098633,11.059570
1334540171,0.784912,0.052002,0.318359,-40.893555,254.608154,68.511963,13.696289,1.098633,12.231445
1338551662,0.789063,0.041992,0.300049,-41.412354,263.275146,66.436768,13.696289,1.098633,12.231445
1342554537,0.749023,0.033203,0.302734,-42.663574,269.378662,62.957764,13.696289,1.098633,12.231445
1345540796,0.721924,0.031738,0.314453,-43.975830,277.893066,59.204102,14.282227,1.245117,12.670898
1348548798,0.686768,0.029297,0.305908,-45.074463,281.768799,57.708740,14.282227,1.245117,12.670898
1351571570,0.651123,0.032715,0.248291,-45.715332,288.452148,55.603027,14.282227,1.245117,12.670898
1354582034,0.614258,-0.013672,0.218262,-45.959473,295.806885,53.619385,14.282227,1.245117,12.670898
1357625729,0.574951,-0.005371,0.202637,-45.745850,301.666260,51.849365,14.282227,1.245117,12.670898
1360655065,0.526123,0.003418,0.203125,-46.325684,308.624268,50.384521,14.282227,1.245117,12.670898
1363645426,0.493164,0.014893,0.178955,-45.867920,314.971924,48.492432,14.062500,2.636719,14.355469
1366607070,0.363037,-0.150635,0.346436,-39.031982,299.041748,42.327881,14.062500,2.636719,14.355469
1369616303,0.437256,-0.088623,0.247070,-40.618896,336.547852,48.400879,14.062500,2.636719,14.355469
1372606664,0.357422,-0.057861,0.345215,-33.752441,331.695557,43.060303,14.062500,2.636719,14.355469
1375605231,0.211426,0.000000,0.402100,-36.865234,343.811035,46.783447,14.062500,2.636719,14.355469
1378626772,0.274902,-0.026123,0.302002,-39.306641,340.606689,41.473389,14.062500,2.636719,14.355469
1381686877,0.090088,-0.001709,0.560547,-44.891357,335.754395,37.292480,14.062500,2.636719,14.355469
1384678059,0.150635,0.009766,0.457275,-54.534912,336.334229,32.745361,14.941406,4.248047,14.355469
1387741036,-0.006836,0.041016,0.749756,-66.558838,338.195801,25.909424,14.941406,4.248047,14.355469
1390747397,-0.117188,0.158203,0.997070,-82.763672,326.782227,19.256592,14.941406,4.248047,14.355469
1393757861,-0.125732,0.126465,1.023926,-100.311279,317.932129,11.596680,15.087891,5.566406,15.673828
1396740017,-0.161865,0.128418,1.046631,-117.004395,312.072754,4.211426,15.087891,5.566406,15.673828
1399813251,-0.283447,0.224609,1.358643,-138.458252,299.102783,-5.493164,15.087891,5.566406,15.673828
1402695715,-0.489258,0.473145,2.001465,-176.757813,280.273438,-18.829346,15.087891,5.566406,15.673828
1405740640,-0.611084,0.617676,2.365479,-227.569580,257.415771,-33.843994,15.087891,5.566406,15.673828
1408751925,-0.574951,0.540771,2.214111,-289.031982,233.276367,-55.694580,15.087891,5.566406,15.673828
1411791927,-0.591553,0.581787,2.272217,-340.545654,208.038330,-71.105957,15.087891,5.566406,15.673828
1414806494,-0.632813,0.589111,2.325684,-401.947021,184.844971,-92.224121,15.893555,6.958008,16.918945
1417795214,-0.543457,0.582275,2.394531,-471.618652,163.055420,-113.708496,15.893555,6.958008,16.918945
1420796242,-0.432373,0.440186,2.143066,-533.966064,133.666992,-135.803223,15.893555,6.958008,16.918945
1423791937,-0.269775,0.395020,1.938232,-588.684082,116.302490,-153.442383,17.138672,7.470703,17.578125
1426795016,-0.244141,0.423096,2.007813,-645.538330,100.280762,-170.806885,17.138672,7.470703,17.578125
1429809583,-0.218506,0.445068,2.045410,-708.465576,86.151123,-190.643311,17.138672,7.470703,17.578125
1432811021,-0.105713,0.400391,1.861572,-774.993896,65.368652,-211.669922,17.138672,7.470703,17.578125
1435902306,0.001465,0.334229,1.584229,-835.388184,51.391602,-230.895996,17.138672,7.470703,17.578125
1438899642,0.203857,0.189697,1.010010,-885.986328,48.278809,-245.758057,17.138672,7.470703,17.578125
1441899439,0.347168,0.067383,0.508545,-922.485352,51.086426,-255.462646,17.138672,7.470703,17.578125
1444866006,0.446289,0.031494,0.124023,-951.171875,58.868408,-259.338379,22.045898,8.862305,19.555664
1447901495,0.522217,-0.014404,-0.170166,-973.907471,70.007324,-259.521484,22.045898,8.862305,19.555664
1450959959,0.548340,-0.043457,-0.343994,-991.790771,81.176758,-255.889893,22.045898,8.862305,19.555664
1454924270,0.544922,-0.032471,-0.468750,-1000.000000,94.207764,-248.962402,22.045898,8.862305,19.555664
1458930017,0.479004,-0.047363,-0.581055,-1000.000000,108.184814,-236.877441,22.045898,8.862305,19.555664
1463012892,0.432129,-0.075684,-0.693848,-1000.000000,118.957520,-221.466064,28.930664,9.594727,20.141602
1466972280,0.380859,-0.104004,-0.809082,-1000.000000,128.723145,-203.277588,28.930664,9.594727,20.141602
1470745411,0.320068,-0.100342,-0.898682,-1000.000000,135.559082,-186.279297,28.930664,9.594727,20.141602
1474018440,0.239258,-0.160400,-0.940918,-1000.000000,137.939453,-170.928955,33.178711,10.180664,19.995117
1477572904,0.182373,-0.192627,-0.967285,-1000.000000,138.092041,-159.027100,33.178711,10.180664,19.995117
1480717112,0.135498,-0.223389,-1.028564,-1000.000000,136.444092,-148.071289,33.178711,10.180664,19.995117
1484196910,0.111816,-0.279785,-1.085449,-1000.000000,133.850098,-139.648438,33.178711,10.180664,19.995117
1488129221,0.075684,-0.293213,-1.140381,-1000.000000,130.401611,-131.042480,33.178711,10.180664,19.995117
1492134967,0.067627,-0.300293,-1.244629,-1000.000000,126.007080,-121.765137,33.178711,10.180664,19.995117
1496175996,0.057373,-0.320557,-1.346680,-1000.000000,120.513916,-112.915039,40.356445,10.766602,15.307617
1500036923,0.024658,-0.347168,-1.397461,-1000.000000,114.135742,-105.773926,40.356445,10.766602,15.307617
1504259285,0.015137,-0.394775,-1.480225,-1000.000000,107.940674,-98.907471,44.165039,10.913086,12.377930
1508437340,0.051025,-0.388672,-1.633789,-1000.000000,102.111816,-91.094971,44.165039,10.913086,12.377930
1512515702,0.042969,-0.469238,-1.728271,-1000.000000,96.679688,-83.190918,44.165039,10.913086,12.377930
1516528013,0.049561,-0.562012,-1.827881,-1000.000000,90.850830,-78.247070,44.165039,10.913086,12.377930
1519894170,0.040039,-0.630859,-1.939453,-1000.000000,84.686279,-74.951172,44.165039,10.913086,12.377930
1524497661,0.073975,-0.695557,-2.028320,-1000.000000,78.216553,-73.760986,47.607422,10.986328,3.955078
1528314689,0.176270,-0.809326,-2.282959,-1000.000000,72.174072,-76.477051,47.607422,10.986328,3.955078
1531570487,0.214355,-0.858398,-2.374756,-1000.000000,68.725586,-81.451416,47.607422,10.986328,3.955078
1534557156,0.237061,-0.932617,-2.515381,-1000.000000,64.758301,-85.418701,47.607422,10.986328,3.955078
1537683723,0.329102,-0.982910,-2.687256,-1000.000000,60.424805,-87.036133,47.607422,10.986328,3.955078
1541615213,0.338379,-1.024658,-2.835205,-1000.000000,59.020996,-87.585449,47.607422,10.986328,3.955078
1544597369,0.216553,-0.879150,-2.697998,-1000.000000,51.330566,-84.075928,48.632813,10.986328,-5.273438
1547615628,-0.096436,-0.526611,-2.224365,-1000.000000,39.367676,-73.516846,48.632813,10.986328,-5.273438
1550743426,-0.411133,-0.011719,-1.399902,-1000.000000,8.361816,-58.868408,47.241211,10.327148,-9.887695
1553810095,-0.504150,0.013916,-1.526123,-1000.000000,-22.125244,-39.581299,47.241211,10.327148,-9.887695
1557644765,-0.539063,-0.054932,-1.498291,-1000.000000,-57.861328,-24.047852,47.241211,10.327148,-9.887695
1560665075,-0.528076,-0.150391,-1.507813,-1000.000000,-98.541260,-7.507324,47.241211,10.327148,-9.887695
1564692155,-0.483887,-0.300781,-1.755371,-1000.000000,-121.765137,4.333496,47.241211,10.327148,-9.887695
1568709799,-0.621338,-0.497803,-1.430664,-1000.000000,-170.867920,8.361816,47.241211,10.327148,-9.887695
1572737290,-0.738770,-0.318359,-1.027344,-1000.000000,-202.331543,11.444092,42.993164,10.180664,-18.530273
1575774010,-0.756348,-0.230225,-1.372803,-1000.000000,-237.091064,2.777100,42.993164,10.180664,-18.530273
1578731962,-0.844238,-0.358154,-1.082520,-1000.000000,-287.322998,-13.122559,42.993164,10.180664,-18.530273
1581753502,-0.833984,-0.749268,-0.971680,-1000.000000,-320.220947,-31.280518,39.990234,10.693359,-21.093750
1584817300,-0.778564,-0.837158,-1.755859,-970.367432,-370.269775,-36.590576,39.990234,10.693359,-21.093750
1588805406,-0.353516,-1.559082,-2.303467,-898.742676,-362.426758,-40.191650,39.990234,10.693359,-21.093750
1591814639,0.364746,-3.299072,-3.977539,-767.364502,-306.121826,-57.922363,39.990234,10.693359,-21.093750
1594864488,0.631836,-3.455322,-3.639648,-655.029297,-321.807861,-58.410645,39.990234,10.693359,-21.093750
1598766029,0.640381,-4.325195,-3.273926,-517.272949,-341.094971,-82.977295,39.990234,10.693359,-21.093750
1602292596,1.132080,-4.971924,-3.808594,-314.819336,-324.920654,-74.310303,34.057617,12.524414,-25.415039
1606270446,1.949463,-4.743164,-4.872314,-107.513428,-282.928467,-56.915283,34.057617,12.524414,-25.415039
1609750654,2.235840,-4.249268,-5.422607,82.153320,-201.385498,-56.182861,34.057617,12.524414,-25.415039
1612759477,3.093506,-4.717773,-4.365723,194.946289,-159.637451,-99.029541,34.057617,12.524414,-25.415039
1615794556,1.508301,-0.457520,-4.733643,240.478516,-57.861328,-75.622559,34.057617,12.524414,-25.415039
1619732200,0.535400,0.616211,-3.921875,208.648682,-19.958496,-84.289551,34.057617,12.524414,-25.415039
1623783486,0.497803,1.500732,-3.935059,128.082275,-18.341064,-106.689453,33.618164,13.549805,-24.829102
1627708002,0.518799,0.656738,-3.395264,81.085205,30.273438,-118.865967,33.618164,13.549805,-24.829102
1630790261,0.365723,0.003662,-2.573730,69.519043,46.051025,-124.206543,33.837891,13.330078,-24.462891
1633904520,0.230469,-0.077393,-2.005615,80.841064,60.180664,-117.431641,33.837891,13.330078,-24.462891
1637861856,0.271484,-0.081787,-1.795166,102.172852,76.538086,-107.116699,33.837891,13.330078,-24.462891
1641937347,0.281738,-0.271484,-1.498047,118.011475,100.189209,-109.039307,33.837891,13.330078,-24.462891
1646022683,-0.004639,0.062256,-0.731201,120.208740,84.533691,-108.856201,33.837891,13.330078,-24.462891
1649785558,0.035645,0.146729,-0.715820,114.227295,92.590332,-108.856201,33.837891,13.330078,-24.462891
1652939202,-0.038330,0.212158,-0.539795,105.346680,96.038818,-107.696533,35.009766,12.890625,-23.730469
1656857564,-0.097168,0.308838,-0.381348,93.566895,90.850830,-107.025146,35.009766,12.890625,-23.730469
1660724234,-0.120605,0.370605,-0.278320,77.484131,88.317871,-105.926514,35.888672,12.158203,-23.583984
1664860032,-0.167725,0.425781,-0.172852,61.798096,79.650879,-103.424072,35.888672,12.158203,-23.583984
1668863318,-0.179688,0.441406,-0.089355,46.234131,78.399658,-99.884033,35.888672,12.158203,-23.583984
1672952347,-0.135986,0.363281,-0.152100,34.759521,75.897217,-96.435547,35.888672,12.158203,-23.583984
1676724247,-0.154541,0.254639,-0.100586,25.482178,68.511963,-92.956543,35.888672,12.158203,-23.583984
1680726302,-0.146973,0.211670,-0.134033,18.737793,57.983398,-88.958740,35.888672,11.865234,-23.583984
1684156869,-0.205566,0.183105,-0.066895,12.145996,52.581787,-83.770752,35.888672,11.865234,-23.583984
1688322205,-0.231201,0.270264,-0.054688,5.279541,46.112061,-78.918457,35.888672,11.865234,-23.583984
1692403439,-0.232666,0.349854,-0.087158,-4.852295,33.386230,-73.242188,35.888672,11.865234,-23.583984
1695517698,-0.244629,0.406494,-0.119141,-16.784668,22.827148,-67.840576,35.888672,11.865234,-23.583984
1699745394,-0.267090,0.428955,-0.129395,-27.191162,11.322021,-63.995361,35.888672,11.865234,-23.583984
1702812474,-0.265137,0.449463,-0.187012,-41.839600,-1.678467,-58.563232,36.108398,11.645508,-23.217773
1706725502,-0.264648,0.468750,-0.225342,-53.375244,-12.969971,-55.297852,36.108398,11.645508,-23.217773
1710613916,-0.261475,0.467773,-0.303223,-69.091797,-26.519775,-51.330566,36.181641,10.693359,-23.291016
1714751765,-0.237793,0.440674,-0.403564,-84.503174,-39.611816,-47.302246,36.181641,10.693359,-23.291016
1718727974,-0.195557,0.420166,-0.502686,-100.708008,-53.985596,-44.342041,36.181641,10.693359,-23.291016
1722771464,-0.134277,0.431641,-0.611572,-117.553711,-67.565918,-42.541504,36.181641,10.693359,-23.291016
1726791980,-0.062500,0.431152,-0.735107,-134.613037,-78.125000,-41.809082,36.181641,10.693359,-23.291016
1730699266,0.015625,0.410889,-0.863281,-152.160645,-86.883545,-43.090820,35.009766,10.986328,-23.730469
1733793012,0.093506,0.365723,-0.982910,-168.365479,-95.916748,-44.982910,35.009766,10.986328,-23.730469
1736778860,0.154297,0.322266,-1.084961,-178.894043,-98.815918,-46.630859,35.009766,10.986328,-23.730469
1740730043,0.042969,0.267822,-1.211670,-184.997559,-120.422363,-48.187256,34.130859,10.839844,-23.583984
1744741534,0.155518,-0.000732,-0.931885,-186.645508,-103.454590,-49.835205,34.130859,10.839844,-23.583984
1748333742,0.327881,-0.227295,-1.313477,-176.879883,-96.710205,-52.276611,34.130859,10.839844,-23.583984
1752337848,0.458008,-0.330078,-1.492432,-167.022705,-87.921143,-54.595947,34.130859,10.839844,-23.583984
1755562466,0.619385,-0.353271,-1.746338,-153.900146,-74.768066,-57.373047,34.130859,10.839844,-23.583984
1759387289,0.635498,-0.329590,-1.769287,-143.371582,-65.673828,-60.180664,33.105469,11.865234,-24.609375
1763395908,0.660400,-0.290039,-1.869873,-133.575439,-52.490234,-63.903809,33.105469,11.865234,-24.609375
1767369655,0.636230,-0.161865,-1.880859,-126.953125,-36.743164,-68.969727,33.105469,11.865234,-24.609375
1771422171,0.543701,-0.052490,-1.745361,-124.359131,-26.306152,-72.723389,33.105469,11.865234,-24.609375
1775465251,0.452148,0.159424,-1.703125,-127.563477,-12.878418,-75.500488,33.105469,11.865234,-24.609375
1779423819,0.363770,0.214355,-1.455078,-134.185791,-6.195068,-79.071045,32.226563,12.158203,-24.902344
1783445155,0.250732,0.255371,-1.266602,-142.456055,-1.647949,-82.427979,32.226563,12.158203,-24.902344
1787473876,0.152588,0.265137,-1.108887,-149.719238,-1.373291,-83.953857,32.226563,12.158203,-24.902344
1791429162,0.085449,0.261963,-0.956787,-156.524658,-0.671387,-84.899902,32.153320,11.791992,-23.803711
1795434498,0.044678,0.248535,-0.851318,-160.644531,-0.823975,-85.144043,32.153320,11.791992,-23.803711
1799656861,-0.012451,0.203613,-0.707764,-162.292480,-5.371094,-84.930420,32.153320,11.791992,-23.803711
1802938094,-0.014404,0.162109,-0.684814,-160.888672,-9.460449,-83.618164,32.153320,11.791992,-23.803711
1806957790,-0.030029,0.135986,-0.605469,-158.935547,-10.742188,-82.855225,32.153320,11.791992,-23.803711
1811067332,-0.049072,0.169434,-0.561035,-156.646729,-18.524170,-81.909180,30.688477,11.938477,-24.682617
1815322515,-0.036133,0.195557,-0.528076,-155.029297,-23.712158,-80.780029,30.688477,11.938477,-24.682617
1819282723,-0.030518,0.221924,-0.525391,-154.296875,-29.052734,-80.444336,30.322266,12.304688,-24.755859
1823306931,-0.023193,0.253418,-0.539795,-155.059814,-34.820557,-80.688477,30.322266,12.304688,-24.755859
1826773601,-0.013184,0.270996,-0.557373,-156.402588,-40.191650,-81.176758,30.322266,12.304688,-24.755859
1830608271,-0.000732,0.294678,-0.600830,-158.447266,-43.457031,-82.366943,30.322266,12.304688,-24.755859
1834492992,0.004883,0.322754,-0.627686,-162.078857,-47.546387,-83.526611,30.322266,12.304688,-24.755859
1838504072,0.020020,0.346436,-0.690918,-166.839600,-50.476074,-85.784912,29.223633,12.084961,-25.122070
1842646845,0.089844,0.347168,-0.821533,-172.027588,-47.943115,-87.768555,29.223633,12.084961,-25.122070
1845640078,0.093018,0.365723,-0.881836,-177.917480,-52.734375,-90.240479,29.223633,12.084961,-25.122070
1848764593,0.074951,0.364990,-0.877441,-182.037354,-53.466797,-92.254639,29.223633,12.084961,-25.122070
1853116597,0.122070,0.373047,-0.972412,-186.828613,-49.224854,-94.299316,29.223633,12.084961,-25.122070
1856695677,0.135010,0.384277,-1.027588,-193.267822,-49.926758,-97.015381,29.223633,12.084961,-25.122070
1860204192,0.151123,0.388184,-1.090576,-198.577881,-48.248291,-99.639893,28.271484,12.011719,-25.048828
1864158247,0.167969,0.411865,-1.128418,-204.833984,-46.020508,-102.386475,28.271484,12.011719,-25.048828
1868161943,0.155518,0.415527,-1.139648,-211.730957,-43.304443,-106.109619,26.440430,12.817383,-24.975586
1872633331,0.144287,0.435791,-1.149658,-219.696045,-40.435791,-109.680176,26.440430,12.817383,-24.975586
1875542461,0.122070,0.456787,-1.121094,-226.409912,-38.208008,-112.335205,26.440430,12.817383,-24.975586
1878543900,0.108154,0.455078,-1.093018,-231.903076,-36.132813,-114.135742,26.440430,12.817383,-24.975586
1881617133,0.095947,0.476807,-1.058838,-237.365723,-35.430908,-116.088867,26.440430,12.817383,-24.975586
1884646469,0.068359,0.505859,-1.027100,-243.804932,-33.752441,-118.713379,26.440430,12.817383,-24.975586
1888170985,0.059082,0.510010,-0.985840,-249.816895,-33.264160,-120.819092,25.341797,12.597656,-24.609375
1892360937,0.024658,0.533447,-0.935303,-256.896973,-32.928467,-122.894287,25.341797,12.597656,-24.609375
1895621657,0.012207,0.573486,-0.896729,-266.784668,-32.501221,-125.213623,25.341797,12.597656,-24.609375
1899313148,-0.010010,0.604004,-0.846680,-274.505615,-33.569336,-126.953125,23.803711,12.817383,-24.536133
1903333254,-0.006592,0.620605,-0.840332,-283.905029,-33.264160,-128.906250,23.803711,12.817383,-24.536133
1907409975,-0.019775,0.667725,-0.781982,-294.769287,-36.804199,-131.347656,23.803711,12.817383,-24.536133
1911349260,-0.021484,0.699951,-0.786377,-306.640625,-36.743164,-133.605957,23.803711,12.817383,-24.536133
1915645879,-0.037109,0.733154,-0.749512,-317.749023,-39.489746,-135.711670,23.803711,12.817383,-24.536133
1919611421,-0.035889,0.750488,-0.755859,-329.406738,-40.832520,-138.061523,22.265625,13.330078,-24.169922
1923473578,-0.040283,0.779297,-0.737549,-340.789795,-43.975830,-140.625000,22.265625,13.330078,-24.169922
1927560555,-0.041260,0.802002,-0.722656,-351.898193,-43.365479,-143.493652,22.265625,13.330078,-24.169922
1931566302,-0.042725,1.040283,-0.771484,-367.645264,-43.182373,-145.385742,22.265625,13.330078,-24.169922
1935540870,-0.035156,0.985840,-0.746826,-383.209229,-47.027588,-148.315430,22.265625,13.330078,-24.169922
1939544976,-0.028809,1.041748,-0.777344,-399.475098,-46.203613,-148.468018,20.361328,13.769531,-23.583984
1943556466,-0.041016,1.033691,-0.790283,-411.132813,-44.525146,-154.418945,20.361328,13.769531,-23.583984
1946712571,-0.035889,1.035400,-0.761475,-422.607422,-45.562744,-155.273438,18.896484,14.355469,-23.876953
1949760779,-0.002686,1.025879,-0.816650,-428.680420,-41.961670,-157.470703,18.896484,14.355469,-23.876953
1953778013,0.002686,1.013428,-0.846924,-432.037354,-38.970947,-157.073975,18.896484,14.355469,-23.876953
1957767349,-0.016846,1.050781,-0.820801,-434.295654,-37.841797,-155.578613,18.896484,14.355469,-23.876953
1962653507,0.088623,0.952148,-0.992432,-430.877686,-37.506104,-153.228760,18.896484,14.355469,-23.876953
1965784177,0.071533,0.894531,-1.093262,-401.519775,-25.146484,-140.289307,16.186523,15.454102,-22.485352
1969764898,0.109131,0.893555,-1.198975,-371.673584,-18.188477,-127.807617,16.186523,15.454102,-22.485352
1973697209,0.114502,0.821777,-1.297119,-320.526123,-8.300781,-107.116699,16.186523,15.454102,-22.485352
1976768801,0.012451,0.872314,-1.083984,-273.803711,6.805420,-90.179443,14.721680,15.600586,-21.606445
1979740291,-0.041992,0.991211,-0.809082,-244.537354,11.718750,-78.857422,14.721680,15.600586,-21.606445
1983744396,-0.142578,1.048828,-0.590332,-222.564697,20.294189,-69.824219,14.721680,15.600586,-21.606445
1987755887,-0.221680,0.979004,-0.393066,-196.960449,25.146484,-60.302734,14.721680,15.600586,-21.606445
1991769429,-0.284180,0.854980,-0.246338,-177.154541,24.627686,-55.541992,14.721680,15.600586,-21.606445
1995816201,-0.314209,0.722168,-0.159424,-159.027100,24.322510,-53.741455,14.721680,15.600586,-21.606445
1999750974,-0.297363,0.683350,-0.067627,-143.920898,20.355225,-53.253174,14.282227,15.747070,-19.848633
2003383797,-0.298828,0.618652,-0.001709,-128.295898,20.141602,-52.185059,14.282227,15.747070,-19.848633
2007460518,-0.272461,0.591064,0.008545,-113.830566,14.526367,-52.124023,14.282227,15.747070,-19.848633
2011730471,-0.268066,0.602539,-0.018555,-100.433350,12.420654,-51.483154,14.282227,15.747070,-19.848633
2015828936,-0.291748,0.656738,0.003906,-85.205078,8.148193,-48.950195,14.282227,15.747070,-19.848633
2020569863,-0.317871,0.666992,0.010010,-73.059082,5.920410,-46.936035,12.890625,15.527344,-19.628906
2024362686,-0.288574,0.681152,-0.009033,-59.997559,2.899170,-43.792725,12.890625,15.527344,-19.628906
2028096023,-0.315674,0.689209,-0.007080,-52.307129,0.732422,-41.137695,13.183594,16.259766,-19.335938
2031542589,-0.309570,0.680420,-0.045654,-43.640137,-0.274658,-38.421631,13.183594,16.259766,-19.335938
2035571721,-0.318848,0.722412,-0.090332,-34.545898,-2.288818,-35.278320,13.183594,16.259766,-19.335938
2039709981,-0.328857,0.779297,-0.112061,-23.712158,-1.708984,-29.663086,13.183594,16.259766,-19.335938
2043746087,-0.346924,0.772705,-0.120117,-15.197754,-3.875732,-25.451660,13.183594,16.259766,-19.335938
2047736244,-0.340820,0.812500,-0.196289,-7.019043,-4.272461,-20.599365,12.963867,15.893555,-19.116211
2051645991,-0.327393,0.914551,-0.297363,2.014160,-2.044678,-13.488770,12.963867,15.893555,-19.116211
2055643943,-0.331055,0.971191,-0.348145,12.451172,-0.335693,-5.676270,12.670898,16.333008,-19.409180
2058711432,-0.326416,1.004150,-0.420654,23.345947,2.227783,2.868652,12.670898,16.333008,-19.409180
2062756154,-0.347656,1.046631,-0.412842,30.975342,4.821777,9.460449,12.670898,16.333008,-19.409180
2066769285,-0.369873,1.065430,-0.416992,38.787842,7.171631,16.754150,12.670898,16.333008,-19.409180
2069735441,-0.375000,1.040527,-0.369385,43.670654,7.873535,22.735596,12.670898,16.333008,-19.409180
2073747342,-0.369873,0.995605,-0.333984,46.142578,7.568359,26.000977,12.670898,16.333008,-19.409180
2076728268,-0.340820,0.905029,-0.322021,49.835205,7.476807,28.808594,12.451172,16.259766,-19.189453
2079813398,-0.310547,0.861572,-0.310059,52.001953,6.561279,30.120850,12.451172,16.259766,-19.189453
2083647248,-0.277344,0.826172,-0.310791,54.901123,4.852295,31.188965,12.451172,16.259766,-19.189453
2087713712,-0.234863,0.796875,-0.301514,57.983398,3.540039,31.860352,12.451172,16.259766,-19.189453
2091702639,-0.199219,0.782471,-0.296875,62.164307,2.136230,32.104492,12.451172,16.259766,-19.189453
2095712078,-0.166016,0.796387,-0.310547,65.765381,0.854492,32.440186,13.403320,16.040039,-19.702148
2098727875,-0.139648,0.812500,-0.336670,68.847656,0.976563,32.409668,13.403320,16.040039,-19.702148
2101726852,-0.125488,0.835205,-0.357178,71.197510,0.366211,32.592773,13.403320,16.040039,-19.702148
2104741009,-0.121338,0.860107,-0.385254,72.784424,1.434326,32.501221,13.623047,15.966797,-19.921875
2107751473,-0.119873,0.877197,-0.416504,74.554443,1.342773,32.348633,13.623047,15.966797,-19.921875
2110807065,-0.124512,0.895508,-0.439453,75.439453,1.464844,32.012939,13.623047,15.966797,-19.921875
2113817939,-0.132813,0.899658,-0.454590,75.958252,2.777100,31.524658,13.623047,15.966797,-19.921875
2117822865,-0.136963,0.925049,-0.474854,76.873779,3.662109,31.219482,13.623047,15.966797,-19.921875
2121763381,-0.155029,0.932129,-0.479736,75.958252,4.608154,30.609131,13.623047,15.966797,-19.921875
2124857538,-0.164795,0.964600,-0.500244,73.974609,5.035400,29.693604,13.476563,15.966797,-20.507813
2128763592,-0.160889,1.008545,-0.485840,71.319580,4.760742,28.961182,13.476563,15.966797,-20.507813
2131823697,-0.165771,0.995605,-0.489014,67.352295,5.432129,27.923584,13.476563,15.966797,-20.507813
2135792111,-0.166992,0.967285,-0.496338,64.636230,5.615234,27.496338,14.355469,16.406250,-20.361328
2138585549,-0.165039,0.967285,-0.489990,61.096191,4.547119,26.550293,14.355469,16.406250,-20.361328
2141805654,-0.156738,0.966064,-0.477783,58.410645,4.394531,25.848389,14.355469,16.406250,-20.361328
2144839093,-0.159668,0.931152,-0.494141,55.664063,5.187988,25.054932,14.355469,16.406250,-20.361328
2148777968,-0.154297,0.910400,-0.508789,52.459717,4.211426,23.895264,14.355469,16.406250,-20.361328
2151793765,-0.156738,0.886230,-0.498291,48.858643,4.486084,22.766113,14.355469,16.406250,-20.361328
2154841973,-0.146973,0.878174,-0.494873,46.356201,3.906250,21.270752,14.355469,15.380859,-20.800781
2158061668,-0.142578,0.849854,-0.520264,43.731689,3.997803,19.836426,14.355469,15.380859,-20.800781
2162055107,-0.141113,0.852295,-0.510254,40.740967,3.601074,18.646240,14.355469,15.380859,-20.800781
2166052649,-0.137695,0.851074,-0.521973,36.865234,3.417969,16.815186,14.355469,15.380859,-20.800781
2170123216,-0.136719,0.852539,-0.513916,32.684326,2.655029,15.380859,14.355469,15.380859,-20.800781
2174064142,-0.135010,0.857910,-0.531494,28.991699,2.258301,13.885498,15.087891,15.380859,-21.093750
2177731017,-0.134277,0.854004,-0.537109,24.841309,1.983643,12.268066,15.087891,15.380859,-21.093750
2180737789,-0.136230,0.881836,-0.531494,20.690918,1.739502,10.620117,15.087891,15.380859,-21.093750
2184901485,-0.143066,0.847900,-0.565186,17.242432,2.288818,9.735107,14.648438,15.234375,-20.654297
2188819847,-0.142334,0.862061,-0.555176,13.641357,1.281738,8.209229,14.648438,15.234375,-20.654297
2192651645,-0.149170,0.863281,-0.558838,9.185791,1.739502,6.195068,14.648438,15.234375,-20.654297
2195665391,-0.144775,0.872803,-0.551758,5.065918,0.732422,4.516602,14.648438,15.234375,-20.654297
2199701497,-0.141602,0.883301,-0.546387,1.220703,0.915527,3.051758,14.648438,15.234375,-20.654297
2202799345,-0.141846,0.895020,-0.538086,-3.448486,1.098633,1.129150,14.501953,15.234375,-21.533203
2207744990,-0.135986,0.894531,-0.541260,-6.347656,0.091553,0.091553,14.501953,15.234375,-21.533203
2211027044,-0.134033,0.887451,-0.531982,-10.437012,-0.549316,-1.556396,14.501953,15.234375,-21.533203
2215142330,-0.135742,0.878174,-0.527100,-12.878418,-0.976563,-2.288818,14.501953,15.234375,-21.533203
2219147666,-0.142334,0.869629,-0.509766,-14.953613,-1.464844,-3.540039,14.501953,15.234375,-21.533203
2223496388,-0.144287,0.857178,-0.497314,-16.418457,-1.708984,-4.821777,14.501953,15.234375,-21.533203
2226762442,-0.149658,0.862061,-0.489258,-17.761230,-1.953125,-5.493164,14.428711,15.600586,-20.874023
2229747060,-0.152100,0.859619,-0.475098,-18.707275,-1.892090,-6.195068,14.428711,15.600586,-20.874023
2233610448,-0.155029,0.858887,-0.475098,-18.737793,-1.586914,-6.164551,14.648438,15.966797,-20.800781
2237661323,-0.153564,0.854736,-0.472656,-19.042969,-1.770020,-6.622314,14.648438,15.966797,-20.800781
2241677326,-0.156494,0.857666,-0.475586,-18.402100,-1.312256,-6.439209,14.648438,15.966797,-20.800781
2245630560,-0.161621,0.857422,-0.472656,-18.310547,-1.220703,-6.439209,14.648438,15.966797,-20.800781
2249635076,-0.158936,0.867920,-0.471436,-17.486572,-1.098633,-5.950928,14.648438,15.966797,-20.800781
2253682669,-0.163086,0.858398,-0.465088,-15.777588,-0.823975,-5.126953,14.062500,16.113281,-21.240234
2257713852,-0.164795,0.859131,-0.463379,-14.007568,-0.549316,-4.211426,14.062500,16.113281,-21.240234
2261689240,-0.168945,0.866943,-0.459961,-11.779785,-0.549316,-3.448486,14.062500,16.113281,-21.240234
2264755499,-0.175049,0.864258,-0.450684,-10.253906,-0.122070,-2.502441,14.648438,15.673828,-20.800781
2267772527,-0.178711,0.862061,-0.448975,-9.033203,-0.427246,-2.136230,14.648438,15.673828,-20.800781
2271250684,-0.185059,0.860596,-0.448242,-7.293701,-0.183105,-1.434326,14.648438,15.673828,-20.800781
2275428328,-0.180420,0.854736,-0.452637,-6.164551,0.091553,-0.823975,14.648438,15.673828,-20.800781
2278735408,-0.179199,0.851563,-0.446777,-4.211426,0.030518,-0.427246,14.648438,15.673828,-20.800781
2281691718,-0.173340,0.854248,-0.451904,-3.143311,0.000000,-0.213623,14.721680,15.600586,-21.166992
2284684131,-0.167969,0.861572,-0.455078,-2.349854,0.366211,0.183105,14.721680,15.600586,-21.166992
2287749569,-0.164551,0.862793,-0.461670,-1.098633,0.457764,0.579834,14.721680,15.600586,-21.166992
2291485367,-0.163818,0.864258,-0.458496,-0.854492,1.037598,0.946045,14.721680,15.600586,-21.166992
2294792447,-0.161865,0.867432,-0.464844,0.396729,0.793457,1.037598,14.721680,15.600586,-21.166992
2300109784,-0.164551,0.861572,-0.468262,0.183105,1.068115,1.403809,14.721680,15.600586,-21.166992
2303930095,-0.161865,0.862305,-0.479004,0.335693,0.915527,1.556396,15.014648,15.600586,-21.313477
2308016252,-0.156982,0.864990,-0.476318,0.244141,1.007080,1.190186,15.014648,15.600586,-21.313477
2312010102,-0.160645,0.869385,-0.480225,-0.518799,0.915527,1.098633,14.501953,15.234375,-21.240234
2316045387,-0.153076,0.873047,-0.484131,-1.098633,0.732422,0.732422,14.501953,15.234375,-21.240234
2320001903,-0.155762,0.874268,-0.489502,-1.892090,0.488281,0.915527,14.501953,15.234375,-21.240234
2324226727,-0.157715,0.869385,-0.487793,-2.593994,0.274658,0.427246,14.501953,15.234375,-21.240234
2327550627,-0.154053,0.866699,-0.485107,-3.753662,-0.030518,-0.091553,14.501953,15.234375,-21.240234
2330631245,-0.154053,0.866455,-0.482422,-4.272461,0.091553,-0.274658,14.501953,15.234375,-21.240234
2333599863,-0.153809,0.870850,-0.481445,-4.791260,-0.061035,-0.427246,14.428711,15.454102,-21.313477
2336570942,-0.156982,0.870117,-0.482178,-4.821777,-0.091553,-0.518799,14.428711,15.454102,-21.313477
2339606842,-0.160889,0.871826,-0.485107,-4.943848,-0.122070,-0.732422,14.428711,15.454102,-21.313477
2342613614,-0.163818,0.869629,-0.478027,-5.371094,0.000000,-0.732422,14.575195,16.186523,-21.020508
2345618334,-0.162598,0.866211,-0.468506,-5.126953,-0.091553,-0.335693,14.575195,16.186523,-21.020508
2348627157,-0.163086,0.865723,-0.477539,-4.760742,0.213623,-0.305176,14.575195,16.186523,-21.020508
2351761519,-0.166748,0.862549,-0.471436,-4.638672,-0.122070,-0.061035,14.575195,16.186523,-21.020508
2355742650,-0.166016,0.862793,-0.460205,-4.150391,0.183105,-0.244141,14.575195,16.186523,-21.020508
2359638859,-0.162109,0.861572,-0.467041,-3.967285,0.305176,-0.030518,14.575195,16.186523,-21.020508
2362645630,-0.164795,0.860596,-0.462402,-3.204346,0.305176,0.244141,14.575195,15.454102,-21.166992
2365652402,-0.164307,0.861084,-0.463135,-2.929688,0.457764,0.305176,14.575195,15.454102,-21.166992
2368728917,-0.163330,0.861084,-0.467529,-2.014160,0.701904,0.640869,14.575195,15.454102,-21.166992
2372812613,-0.161865,0.861084,-0.470215,-1.739502,0.610352,0.885010,14.575195,15.454102,-21.166992
2376797847,-0.167969,0.864502,-0.469971,-1.434326,0.640869,0.732422,14.575195,15.454102,-21.166992
2381314774,-0.161621,0.869141,-0.475098,-1.159668,1.007080,0.915527,14.575195,15.454102,-21.166992
2385364418,-0.166260,0.866455,-0.472656,-1.434326,0.488281,0.976563,14.428711,15.307617,-20.581055
2389336114,-0.158203,0.867920,-0.481445,-1.770020,0.549316,0.732422,14.428711,15.307617,-20.581055
2393286066,-0.152100,0.869141,-0.483398,-2.197266,0.701904,0.488281,14.282227,15.161133,-21.313477
2397282787,-0.155029,0.866943,-0.474121,-2.410889,0.366211,0.366211,14.282227,15.161133,-21.313477
2401346380,-0.155762,0.864990,-0.481201,-2.838135,0.488281,0.427246,14.282227,15.161133,-21.313477
2405366076,-0.156494,0.863037,-0.478760,-3.112793,0.030518,0.061035,14.282227,15.161133,-21.313477
2409305361,-0.162109,0.865479,-0.474365,-3.479004,0.213623,-0.030518,14.282227,15.161133,-21.313477
2413389057,-0.160889,0.862305,-0.481445,-3.845215,-0.122070,-0.152588,14.575195,15.307617,-21.313477
2417299214,-0.161865,0.867432,-0.475586,-3.936768,0.000000,0.122070,14.575195,15.307617,-21.313477
2420900447,-0.160889,0.865967,-0.474121,-3.540039,0.091553,0.122070,14.428711,15.454102,-20.874023
2424893476,-0.163086,0.864990,-0.470215,-3.601074,0.183105,0.213623,14.428711,15.454102,-20.874023
2428912762,-0.166504,0.864746,-0.475098,-3.265381,0.488281,0.274658,14.428711,15.454102,-20.874023
2432845073,-0.166260,0.863770,-0.471191,-3.204346,0.030518,0.213623,14.428711,15.454102,-20.874023
2435915434,-0.162109,0.862549,-0.472900,-2.685547,0.701904,0.305176,14.428711,15.454102,-20.874023
2439860873,-0.165527,0.864258,-0.467529,-2.349854,0.427246,0.518799,14.428711,15.454102,-20.874023
2442919748,-0.163330,0.865723,-0.468506,-1.953125,0.335693,0.579834,14.428711,15.307617,-21.166992
2446918930,-0.164307,0.866699,-0.470459,-1.800537,0.671387,0.671387,14.428711,15.307617,-21.166992
2450916882,-0.163330,0.864014,-0.479004,-1.739502,0.640869,0.946045,14.428711,15.307617,-21.166992
2454963245,-0.161621,0.863281,-0.476074,-1.281738,0.854492,0.610352,14.428711,15.307617,-21.166992
2459038735,-0.160156,0.865234,-0.475098,-1.647949,0.640869,0.823975,14.428711,15.307617,-21.166992
2463279969,-0.159668,0.863770,-0.474365,-1.556396,0.579834,0.427246,14.501953,15.527344,-20.947266
2467112588,-0.157471,0.865234,-0.476563,-1.831055,0.762939,0.457764,14.501953,15.527344,-20.947266
2471094130,-0.160400,0.864746,-0.475830,-1.708984,0.396729,0.732422,14.062500,15.966797,-20.214844
2475116287,-0.159912,0.869141,-0.474854,-2.197266,0.457764,0.427246,14.062500,15.966797,-20.214844
2479182341,-0.161133,0.868652,-0.476563,-2.349854,0.335693,0.396729,14.062500,15.966797,-20.214844
2483166755,-0.160889,0.866943,-0.476807,-2.532959,0.396729,0.366211,14.062500,15.966797,-20.214844
2487096604,-0.160645,0.867188,-0.479736,-2.746582,0.366211,0.274658,14.062500,15.966797,-20.214844
2491250864,-0.160400,0.870605,-0.477295,-3.021240,0.488281,0.183105,14.208984,15.087891,-21.093750
2495158149,-0.161865,0.872070,-0.478760,-3.479004,0.274658,0.305176,14.208984,15.087891,-21.093750
2499133948,-0.160889,0.869141,-0.474121,-3.234863,0.366211,0.366211,14.208984,15.087891,-21.093750
2503218874,-0.160156,0.861084,-0.470947,-3.387451,0.366211,0.213623,14.208984,15.673828,-21.093750
2507476929,-0.165527,0.864746,-0.478760,-3.082275,0.427246,0.183105,14.208984,15.673828,-21.093750
2511446573,-0.162842,0.864746,-0.470947,-2.777100,0.122070,0.030518,14.208984,15.673828,-21.093750
2515425653,-0.160400,0.863281,-0.475830,-2.685547,0.366211,0.335693,14.208984,15.673828,-21.093750
2519493349,-0.162842,0.866943,-0.477051,-2.777100,0.335693,0.274658,14.282227,15.307617,-21.093750
2523181557,-0.162109,0.866211,-0.471680,-2.471924,0.396729,0.366211,14.282227,15.307617,-21.020508
2527133560,-0.162842,0.865479,-0.471191,-2.716064,0.335693,0.579834,14.282227,15.307617,-21.020508
2531150794,-0.163574,0.864746,-0.472656,-2.685547,0.213623,0.366211,14.282227,15.307617,-21.020508
2535248028,-0.164307,0.867676,-0.475098,-2.227783,0.671387,0.457764,14.282227,15.307617,-21.020508
2539255006,-0.163086,0.864014,-0.476563,-2.532959,0.061035,0.396729,14.868164,16.040039,-21.020508
2543292343,-0.162598,0.863770,-0.479492,-2.502441,0.396729,0.518799,14.868164,16.040039,-21.166992
2547227936,-0.162842,0.864258,-0.474609,-2.075195,0.549316,0.579834,14.868164,16.040039,-21.166992
2551328042,-0.162842,0.864990,-0.476074,-2.593994,0.335693,0.823975,14.355469,15.234375,-20.947266
2555363737,-0.160400,0.864990,-0.475586,-2.593994,0.518799,0.427246,14.355469,15.234375,-20.947266
2559514715,-0.163574,0.867188,-0.474121,-2.655029,0.549316,0.427246,14.355469,15.234375,-20.947266
2563664462,-0.163086,0.865234,-0.483398,-2.563477,0.579834,0.244141,14.355469,15.234375,-20.947266
2567559029,-0.156738,0.867676,-0.472656,-2.410889,0.427246,0.366211,14.355469,15.234375,-20.947266
2571272673,-0.161865,0.866211,-0.479004,-2.716064,0.579834,0.488281,14.648438,15.380859,-21.386719
2575321907,-0.160889,0.866943,-0.478516,-2.685547,0.183105,0.396729,14.648438,15.380859,-21.386719
2578449295,-0.162842,0.863525,-0.479492,-2.380371,0.366211,0.305176,14.501953,15.380859,-21.386719
2581830220,-0.160156,0.865479,-0.479248,-2.563477,0.305176,0.183105,14.501953,15.380859,-21.386719
2584893197,-0.159912,0.864746,-0.479248,-3.021240,0.427246,0.122070,14.501953,15.380859,-21.386719
2588561713,-0.162109,0.862793,-0.476318,-3.265381,0.030518,0.183105,14.501953,15.380859,-21.386719
2592057921,-0.158936,0.865723,-0.477051,-3.051758,0.030518,0.244141,14.501953,15.380859,-21.386719
2596425104,-0.159912,0.869141,-0.477295,-3.387451,0.213623,0.213623,14.501953,15.380859,-21.386719
2599687876,-0.164551,0.868896,-0.472656,-3.509521,0.366211,0.152588,14.794922,15.673828,-21.093750
2602939161,-0.160156,0.866211,-0.475342,-3.448486,0.213623,0.152588,14.794922,15.673828,-21.093750
2606958036,-0.160645,0.865723,-0.477783,-3.723145,0.213623,0.000000,14.794922,15.673828,-21.093750
2611029014,-0.160400,0.868652,-0.476318,-3.326416,0.183105,0.152588,14.794922,15.673828,-21.093750
2615158248,-0.159912,0.863770,-0.478271,-3.601074,0.061035,-0.061035,14.794922,15.673828,-21.093750
2619105328,-0.163330,0.867188,-0.474854,-3.509521,0.183105,-0.244141,14.794922,15.380859,-21.240234
2623181229,-0.160156,0.863770,-0.475098,-3.143311,0.427246,0.183105,14.794922,15.380859,-21.240234
2626767693,-0.158203,0.861816,-0.475586,-3.570557,0.213623,0.091553,14.794922,15.380859,-21.240234
2629793337,-0.163818,0.863525,-0.475098,-3.173828,0.457764,0.030518,13.842773,15.893555,-21.459961
2634373033,-0.158203,0.866699,-0.476318,-3.082275,0.518799,0.091553,13.842773,15.893555,-21.459961
2638152728,-0.159668,0.864258,-0.470215,-2.960205,0.488281,0.152588,13.842773,15.893555,-21.459961
2642248321,-0.165039,0.867188,-0.475098,-2.960205,0.396729,0.274658,13.842773,15.893555,-21.459961
2646400530,-0.162354,0.868652,-0.475098,-3.021240,0.213623,0.030518,13.842773,15.893555,-21.459961
2650491200,-0.159912,0.866211,-0.468506,-2.868652,0.366211,0.305176,14.721680,15.161133,-20.288086
2654618793,-0.158691,0.864502,-0.477539,-2.899170,0.457764,0.183105,14.721680,15.161133,-20.288086
2658524437,-0.161377,0.868164,-0.470215,-2.868652,0.457764,0.457764,14.648438,15.820313,-21.240234
2662657774,-0.162842,0.866699,-0.476318,-3.051758,0.488281,0.274658,14.648438,15.820313,-21.240234
2666706598,-0.161621,0.866455,-0.475830,-2.868652,0.305176,0.183105,14.648438,15.820313,-21.240234
2670628242,-0.161377,0.864014,-0.474854,-3.234863,0.457764,-0.061035,14.648438,15.820313,-21.240234
2674475220,-0.162598,0.865479,-0.476318,-3.356934,0.213623,-0.244141,14.648438,15.820313,-21.240234
2677643222,-0.160400,0.866699,-0.473877,-2.990723,0.244141,0.305176,14.355469,15.380859,-20.947266
2680646302,-0.160400,0.866455,-0.471191,-3.143311,0.396729,0.061035,14.355469,15.380859,-20.947266
2683710919,-0.160156,0.865967,-0.478760,-3.448486,0.244141,0.061035,14.355469,15.380859,-20.947266
2686826819,-0.164551,0.867676,-0.475098,-3.143311,0.305176,-0.152588,14.355469,15.380859,-20.947266
2689848360,-0.162109,0.866455,-0.479004,-3.631592,0.213623,0.213623,14.355469,15.380859,-20.947266
2693839338,-0.159912,0.864258,-0.476563,-3.265381,0.457764,0.183105,14.355469,15.380859,-20.947266
2697696572,-0.160645,0.863281,-0.475098,-3.417969,0.335693,-0.030518,14.428711,15.600586,-21.166992
2700758318,-0.158203,0.861328,-0.479980,-3.112793,0.457764,0.122070,14.428711,15.600586,-21.166992
2703939449,-0.161621,0.863281,-0.477295,-3.021240,0.305176,0.183105,14.428711,15.600586,-21.166992
2707537401,-0.160400,0.864990,-0.472412,-3.295898,0.152588,0.000000,14.428711,15.600586,-20.581055
2710568788,-0.158691,0.863037,-0.469971,-3.417969,0.274658,0.152588,14.428711,15.600586,-20.581055
2714124893,-0.165039,0.863281,-0.471924,-3.112793,0.396729,-0.030518,14.428711,15.600586,-20.581055
2718153204,-0.161621,0.868164,-0.472412,-3.143311,0.518799,0.305176,14.428711,15.600586,-20.581055
2721562027,-0.162842,0.865967,-0.472412,-3.265381,0.213623,0.305176,14.428711,15.600586,-20.581055
2725608800,-0.160645,0.867676,-0.478760,-3.234863,0.457764,0.244141,14.428711,15.600586,-20.581055
2728729213,-0.161133,0.862549,-0.471680,-2.929688,0.335693,0.061035,14.648438,15.527344,-20.947266
2732275062,-0.163086,0.862305,-0.476563,-2.807617,0.335693,0.244141,14.648438,15.527344,-20.947266
2736311168,-0.164063,0.865479,-0.469482,-2.593994,0.549316,0.518799,14.648438,15.527344,-20.947266
2740476505,-0.161377,0.863770,-0.474854,-3.051758,0.579834,0.396729,14.501953,15.966797,-21.533203
2744508098,-0.156738,0.867920,-0.472168,-2.838135,0.396729,0.396729,14.501953,15.966797,-21.533203
2748392819,-0.156494,0.864502,-0.475342,-2.624512,0.518799,0.366211,14.501953,15.966797,-21.533203
2752476514,-0.160645,0.863770,-0.469238,-2.655029,0.427246,0.122070,14.501953,15.966797,-21.533203
2756503595,-0.159912,0.867188,-0.474854,-2.685547,0.335693,0.549316,14.428711,15.600586,-21.166992
2760503188,-0.163574,0.866211,-0.482422,-2.990723,0.488281,0.213623,14.428711,15.600586,-21.166992
2764535601,-0.160156,0.864258,-0.480957,-2.990723,0.427246,0.091553,14.428711,15.600586,-21.166992
2768546681,-0.157471,0.867676,-0.481201,-3.356934,0.366211,0.213623,14.428711,15.600586,-21.166992
2772510172,-0.159180,0.865723,-0.478760,-3.387451,0.213623,0.366211,14.428711,15.600586,-21.166992
2776513457,-0.159668,0.865723,-0.480469,-3.021240,0.396729,0.305176,14.062500,16.259766,-20.947266
2780469973,-0.158936,0.866699,-0.473877,-3.234863,0.396729,0.091553,14.062500,16.259766,-20.947266
2784524541,-0.157959,0.863281,-0.470459,-3.356934,0.396729,0.061035,14.062500,16.259766,-20.947266
2787570697,-0.164063,0.863037,-0.475586,-3.021240,0.488281,0.152588,14.501953,15.820313,-20.947266
2790579110,-0.160156,0.863525,-0.468994,-3.112793,0.335693,0.091553,14.501953,15.820313,-20.947266
2794551216,-0.157471,0.865479,-0.472168,-3.021240,0.244141,0.122070,14.501953,15.820313,-20.947266
2797719218,-0.161621,0.866699,-0.469482,-3.021240,0.427246,0.396729,14.501953,15.820313,-20.947266
2802280042,-0.159668,0.863281,-0.472656,-2.655029,0.305176,0.122070,14.501953,15.820313,-20.947266
2806257892,-0.163086,0.866943,-0.471924,-2.807617,0.274658,0.213623,14.648438,15.673828,-21.386719
2810385485,-0.160645,0.867188,-0.475586,-2.502441,0.335693,0.457764,14.648438,15.673828,-21.386719
2814453181,-0.161621,0.865723,-0.474854,-2.624512,0.396729,0.213623,14.648438,15.673828,-21.386719
2817562927,-0.161377,0.864990,-0.479736,-2.716064,0.640869,0.427246,14.355469,15.820313,-20.654297
2820759237,-0.162842,0.861572,-0.472168,-2.868652,0.457764,0.518799,14.355469,15.820313,-20.654297
2825487036,-0.162598,0.863525,-0.474609,-2.960205,0.366211,0.396729,14.355469,15.820313,-20.654297
2828738731,-0.158203,0.866943,-0.468018,-2.532959,0.274658,0.152588,14.355469,15.820313,-20.654297
2832455247,-0.164551,0.867676,-0.474121,-2.716064,0.274658,0.152588,14.355469,15.820313,-20.654297
2836687455,-0.156738,0.866943,-0.473633,-2.868652,0.152588,0.091553,14.794922,15.527344,-20.654297
2840677612,-0.164551,0.864990,-0.471680,-2.929688,0.366211,0.549316,14.794922,15.527344,-20.654297
2843708589,-0.160889,0.865967,-0.472900,-2.716064,0.640869,0.488281,14.794922,15.527344,-20.654297
2846703874,-0.162109,0.864746,-0.474365,-2.899170,0.213623,0.488281,14.794922,15.527344,-20.654297
2849693415,-0.165771,0.867432,-0.478027,-2.685547,0.427246,0.396729,14.794922,15.527344,-20.654297
2852749417,-0.161133,0.869629,-0.472656,-2.960205,0.213623,0.122070,14.794922,15.527344,-20.654297
2855687676,-0.163330,0.868408,-0.472900,-2.899170,0.549316,0.366211,14.794922,15.527344,-20.947266
2858747371,-0.161865,0.865479,-0.479736,-2.624512,0.274658,0.366211,14.794922,15.527344,-20.947266
2862742861,-0.160889,0.871582,-0.471924,-2.807617,0.366211,-0.030518,14.794922,15.527344,-20.947266
2865830864,-0.160156,0.866455,-0.474121,-2.838135,0.457764,0.366211,14.501953,15.527344,-21.093750
2869730354,-0.160156,0.865234,-0.477295,-2.777100,0.305176,0.030518,14.501953,15.527344,-21.093750
2872829844,-0.158447,0.866943,-0.475830,-2.929688,0.274658,0.549316,14.501953,15.527344,-21.093750
2876543898,-0.161865,0.863037,-0.469482,-2.655029,0.549316,0.335693,14.501953,15.527344,-21.093750
2879713132,-0.163330,0.866455,-0.470703,-2.777100,0.457764,0.335693,14.501953,15.527344,-21.093750
2883431288,-0.160400,0.866943,-0.477295,-2.655029,0.366211,0.274658,14.501953,15.527344,-21.093750
2886737137,-0.159912,0.864502,-0.470947,-2.777100,0.244141,0.366211,14.501953,15.820313,-21.240234
2889671704,-0.160156,0.863281,-0.474609,-2.716064,0.366211,0.427246,14.501953,15.820313,-21.240234
2892686681,-0.157715,0.867188,-0.469482,-2.838135,0.244141,0.030518,14.501953,15.820313,-21.240234
2895665555,-0.162598,0.864990,-0.473145,-2.868652,0.427246,0.366211,14.355469,16.113281,-20.654297
2898677660,-0.163330,0.864014,-0.475342,-2.777100,0.183105,0.366211,14.355469,16.113281,-20.654297
2901508842,-0.162354,0.869141,-0.475830,-2.929688,0.549316,0.427246,14.355469,16.113281,-20.654297
2904685049,-0.161865,0.864990,-0.472900,-2.502441,0.335693,0.213623,14.355469,16.113281,-20.654297
2907684437,-0.159424,0.868164,-0.470459,-2.685547,0.396729,0.366211,14.355469,16.113281,-20.654297
2910696542,-0.159668,0.866699,-0.476807,-2.960205,0.305176,0.366211,14.355469,16.113281,-20.654297
2913762801,-0.161621,0.866699,-0.476807,-2.716064,0.640869,0.305176,14.355469,15.527344,-20.800781
2916722803,-0.160889,0.866699,-0.470215,-2.563477,0.366211,0.213623,14.355469,15.527344,-20.800781
2919692652,-0.161133,0.866455,-0.478760,-2.960205,0.549316,0.213623,14.355469,15.527344,-20.800781
2922568962,-0.157715,0.866943,-0.478760,-2.410889,0.579834,0.427246,14.355469,15.527344,-20.800781
2926613273,-0.160645,0.863037,-0.478516,-2.746582,0.305176,0.549316,14.355469,15.527344,-20.800781
2929656557,-0.160889,0.866699,-0.471680,-2.532959,0.640869,0.244141,14.355469,15.527344,-20.800781
2932838919,-0.160889,0.863525,-0.475586,-2.777100,0.488281,0.457764,14.355469,15.527344,-20.800781
2936823332,-0.157715,0.868652,-0.476563,-2.777100,0.366211,0.396729,14.208984,16.113281,-20.947266
2940774105,-0.161621,0.867920,-0.477783,-2.532959,0.274658,0.549316,14.208984,16.113281,-20.947266
2943823133,-0.160645,0.865723,-0.476807,-2.807617,0.488281,0.061035,15.161133,15.307617,-21.606445
2947847752,-0.160156,0.868164,-0.478027,-2.746582,0.305176,0.396729,15.161133,15.307617,-21.606445
2951600780,-0.159668,0.865234,-0.479736,-2.593994,0.396729,0.457764,15.161133,15.307617,-21.606445
2955589296,-0.158203,0.868164,-0.474365,-2.960205,0.396729,0.183105,15.161133,15.307617,-21.606445
2959578223,-0.161865,0.866455,-0.468994,-3.021240,0.152588,0.213623,15.161133,15.307617,-21.606445
2962863149,-0.160156,0.865723,-0.474609,-3.082275,0.244141,0.183105,15.161133,15.307617,-21.606445
2967008383,-0.163330,0.867920,-0.477295,-3.112793,0.274658,0.305176,14.282227,15.307617,-21.459961
2970723668,-0.161377,0.863281,-0.481201,-3.143311,0.488281,0.427246,14.282227,15.307617,-21.459961
2974761825,-0.160400,0.863037,-0.472656,-3.173828,0.396729,0.274658,14.501953,15.820313,-21.386719
2978727777,-0.159180,0.866211,-0.475586,-3.448486,0.305176,0.457764,14.501953,15.820313,-21.386719
2982818447,-0.163330,0.865479,-0.479004,-3.143311,0.549316,0.122070,14.501953,15.820313,-21.386719
2986714655,-0.156982,0.863770,-0.473145,-3.051758,0.152588,0.061035,14.501953,15.820313,-21.386719
2989584401,-0.154541,0.868408,-0.474121,-3.051758,0.244141,0.152588,14.501953,15.820313,-21.386719
2992634660,-0.161865,0.862305,-0.473145,-3.051758,0.549316,0.274658,14.062500,15.966797,-21.240234
2995695586,-0.161865,0.864746,-0.479004,-3.265381,-0.122070,0.122070,14.062500,15.966797,-21.240234
2998708922,-0.159424,0.865723,-0.473877,-2.838135,0.427246,0.274658,14.062500,15.966797,-21.240234
3002001642,-0.161865,0.865967,-0.476807,-2.929688,0.335693,0.061035,14.062500,15.966797,-21.240234
3005718979,-0.157471,0.867188,-0.472412,-2.807617,0.396729,0.122070,14.062500,15.966797,-21.240234
3009725546,-0.161865,0.862549,-0.478027,-3.112793,0.427246,0.183105,14.062500,15.966797,-21.240234
3012699497,-0.159912,0.867432,-0.477295,-2.532959,0.305176,0.122070,14.282227,15.454102,-20.581055
3015727192,-0.158203,0.863281,-0.476318,-2.777100,0.457764,0.305176,14.282227,15.454102,-20.581055
3018710989,-0.156982,0.864502,-0.472168,-2.807617,0.000000,0.061035,14.282227,15.454102,-20.581055
3021722274,-0.154541,0.865479,-0.473145,-3.143311,0.061035,0.213623,14.282227,15.454102,-20.581055
3024793866,-0.159424,0.862793,-0.476807,-2.716064,0.396729,0.183105,14.428711,15.307617,-20.874023
3027770279,-0.161621,0.866455,-0.478516,-3.173828,0.518799,0.335693,14.428711,15.307617,-20.874023
3032717975,-0.158936,0.866211,-0.478027,-2.960205,0.183105,0.122070,14.428711,15.307617,-20.874023
3035693567,-0.158203,0.867188,-0.477051,-2.990723,0.427246,0.274658,14.428711,15.307617,-20.874023
3038700339,-0.156006,0.864014,-0.479004,-3.082275,0.518799,0.488281,14.428711,15.307617,-20.874023
3042760650,-0.158447,0.866455,-0.475342,-3.326416,0.244141,0.122070,14.428711,15.307617,-20.874023
3046710602,-0.161377,0.864990,-0.475830,-3.112793,0.488281,0.335693,14.501953,15.380859,-21.386719
3049747322,-0.159180,0.868652,-0.480713,-3.173828,0.488281,0.183105,14.501953,15.380859,-21.386719
3052763940,-0.165771,0.865967,-0.474854,-3.234863,0.091553,0.305176,14.208984,15.673828,-20.947266
3055859327,-0.164063,0.867188,-0.477051,-3.387451,0.122070,-0.030518,14.208984,15.673828,-20.947266
3059953279,-0.156738,0.860840,-0.474365,-3.112793,0.427246,0.152588,14.208984,15.673828,-20.947266
3063830206,-0.160400,0.866455,-0.476563,-3.295898,0.335693,0.396729,14.868164,15.600586,-21.166992
3067598824,-0.162109,0.866943,-0.475342,-3.173828,0.427246,0.244141,14.868164,15.600586,-21.166992
3070720878,-0.163330,0.862061,-0.480225,-3.417969,0.488281,-0.122070,14.868164,15.600586,-21.166992
3073758829,-0.161133,0.867676,-0.472168,-3.295898,0.183105,0.305176,14.501953,15.820313,-21.533203
3076674524,-0.162354,0.866943,-0.470459,-2.960205,0.579834,0.305176,14.501953,15.820313,-21.533203
3079736270,-0.163086,0.866699,-0.475830,-3.265381,0.335693,0.335693,14.501953,15.820313,-21.533203
3082889914,-0.163574,0.866211,-0.473389,-3.021240,0.305176,0.091553,14.501953,15.820313,-21.533203
3086872686,-0.162842,0.865479,-0.474854,-3.021240,0.427246,0.396729,14.501953,15.820313,-21.533203
3090884997,-0.161377,0.866211,-0.478516,-2.990723,0.122070,0.335693,14.501953,15.820313,-21.533203
3094908385,-0.162109,0.864014,-0.480957,-2.777100,0.305176,0.000000,14.355469,15.673828,-20.800781
3099011773,-0.159668,0.865723,-0.473877,-2.746582,0.335693,0.457764,14.355469,15.673828,-20.800781
3103122956,-0.160400,0.865234,-0.474121,-2.838135,0.152588,0.305176,14.135742,15.307617,-20.581055
3107184498,-0.157715,0.863525,-0.475586,-2.807617,0.274658,0.274658,14.135742,15.307617,-20.581055
3111109834,-0.162354,0.866943,-0.477539,-2.929688,0.274658,0.213623,14.135742,15.307617,-20.581055
3115097940,-0.165039,0.864990,-0.471680,-2.960205,0.488281,0.152588,14.135742,15.307617,-20.581055
3119487687,-0.162109,0.864502,-0.478516,-2.960205,0.793457,0.122070,14.135742,15.307617,-20.581055
3123081536,-0.161377,0.871338,-0.473633,-3.021240,0.335693,0.000000,14.648438,15.673828,-21.093750
3127276822,-0.160156,0.863770,-0.482178,-2.868652,0.305176,0.244141,14.648438,15.673828,-21.093750
3130642158,-0.159912,0.863037,-0.481445,-3.173828,0.305176,0.091553,14.648438,15.673828,-21.093750
3134168315,-0.158691,0.866699,-0.472656,-3.021240,0.427246,0.152588,14.208984,15.673828,-21.093750
3138352934,-0.162109,0.867188,-0.481934,-3.204346,0.091553,0.091553,14.208984,15.673828,-21.093750
3142558475,-0.160156,0.864502,-0.472168,-2.655029,0.366211,0.183105,14.208984,15.673828,-21.093750
3146546171,-0.166016,0.862305,-0.469238,-3.387451,0.213623,0.305176,14.208984,15.673828,-21.093750
3150231918,-0.160645,0.864990,-0.473389,-2.929688,0.274658,0.152588,14.208984,15.673828,-21.093750
3154389460,-0.161865,0.865967,-0.473877,-2.716064,0.152588,0.244141,14.208984,15.673828,-21.533203
3157501257,-0.164307,0.866699,-0.473633,-2.685547,0.274658,0.091553,14.208984,15.673828,-21.533203
3161528337,-0.159180,0.871338,-0.478760,-2.899170,0.488281,0.030518,14.208984,15.673828,-21.533203
3165555828,-0.161865,0.865479,-0.475586,-2.838135,0.610352,0.335693,14.208984,15.673828,-21.533203
3169719934,-0.157959,0.865479,-0.468750,-3.051758,0.427246,0.183105,14.208984,15.673828,-21.533203
3174185168,-0.164795,0.866699,-0.471680,-2.685547,0.305176,0.152588,14.208984,15.380859,-20.800781
3177684248,-0.156006,0.869141,-0.480469,-2.746582,0.396729,0.274658,14.208984,15.380859,-20.800781
3180678302,-0.160156,0.866211,-0.470703,-2.777100,0.427246,0.244141,14.868164,15.747070,-20.727539
3184209381,-0.159180,0.864258,-0.472656,-2.655029,0.640869,0.244141,14.868164,15.747070,-20.727539
3188410411,-0.161377,0.870605,-0.472412,-3.021240,0.518799,0.122070,14.868164,15.747070,-20.727539
3192425593,-0.161865,0.865479,-0.477051,-2.655029,0.366211,0.396729,14.868164,15.747070,-20.727539
3196407545,-0.163330,0.862793,-0.478027,-2.716064,0.305176,0.396729,14.868164,15.747070,-20.727539
3199579650,-0.163574,0.864258,-0.478516,-2.746582,0.366211,0.488281,14.868164,15.747070,-20.727539
3203569808,-0.159668,0.866455,-0.473145,-2.899170,0.335693,0.152588,14.501953,15.820313,-21.386719
3207397503,-0.165283,0.865479,-0.471680,-3.082275,0.579834,0.183105,14.501953,15.820313,-21.386719
3211567353,-0.161621,0.865479,-0.465576,-3.051758,0.610352,0.213623,14.575195,15.014648,-21.313477
3215580894,-0.161621,0.865234,-0.480225,-2.807617,0.305176,0.427246,14.575195,15.014648,-21.313477
3219691667,-0.162598,0.864502,-0.485352,-2.960205,0.366211,0.305176,14.575195,15.014648,-21.313477
3223708080,-0.159424,0.864502,-0.479736,-2.777100,0.549316,0.305176,14.575195,15.014648,-21.313477
3227681007,-0.164307,0.868408,-0.475342,-2.899170,0.488281,0.457764,14.575195,15.014648,-21.313477
3231681010,-0.158447,0.865723,-0.475586,-2.807617,0.335693,0.152588,15.307617,15.307617,-21.020508
3236631989,-0.160156,0.865234,-0.472900,-2.929688,0.366211,0.335693,15.307617,15.307617,-21.020508
3240643479,-0.159424,0.862793,-0.477783,-2.807617,0.305176,0.030518,15.307617,15.307617,-21.020508
3244718149,-0.163818,0.865723,-0.480713,-3.143311,0.335693,0.274658,15.307617,15.307617,-21.020508
3249648615,-0.159668,0.863037,-0.468018,-2.593994,0.396729,0.335693,15.307617,15.307617,-21.020508
3253704823,-0.159424,0.866211,-0.467773,-2.807617,0.457764,0.305176,15.161133,15.747070,-20.874023
3257719185,-0.159912,0.862061,-0.478027,-2.655029,0.488281,0.152588,15.161133,15.747070,-20.874023
3261673240,-0.158447,0.864014,-0.472656,-2.868652,0.457764,0.305176,14.868164,15.307617,-21.020508
3266705859,-0.162598,0.864990,-0.477295,-2.807617,0.335693,0.305176,14.868164,15.307617,-21.020508
3270788324,-0.159424,0.863525,-0.472168,-2.685547,0.366211,0.305176,14.868164,15.307617,-21.020508
3275725764,-0.159180,0.866699,-0.471924,-2.929688,0.244141,0.488281,14.868164,15.307617,-21.020508
3278752228,-0.161133,0.863525,-0.471436,-2.899170,0.366211,0.457764,14.868164,15.307617,-21.020508
3281713051,-0.159180,0.865967,-0.473633,-2.746582,0.518799,0.335693,15.014648,15.747070,-21.459961
3284784233,-0.158691,0.865234,-0.467285,-2.899170,0.518799,0.030518,15.014648,15.747070,-21.459961
3288702595,-0.163818,0.864990,-0.476563,-2.990723,0.396729,0.335693,15.014648,15.747070,-21.459961
3291733982,-0.157959,0.866699,-0.473633,-3.021240,0.335693,0.213623,14.721680,15.600586,-21.313477
3294787934,-0.159668,0.868164,-0.470459,-3.112793,0.183105,0.244141,14.721680,15.600586,-21.313477
3298621783,-0.163818,0.865723,-0.475586,-2.777100,0.457764,0.244141,14.721680,15.600586,-21.313477
3301697888,-0.158691,0.865967,-0.473633,-3.234863,0.152588,0.152588,14.721680,15.600586,-21.313477
3304681275,-0.161621,0.864502,-0.474854,-3.173828,0.335693,0.274658,14.721680,15.600586,-21.313477
3308207022,-0.159668,0.864502,-0.476807,-2.990723,0.305176,0.518799,14.721680,15.600586,-21.313477
3312203743,-0.158936,0.868652,-0.477539,-3.112793,0.305176,0.061035,14.282227,15.307617,-21.020508
3316202515,-0.162354,0.867676,-0.474365,-2.777100,0.457764,0.213623,14.282227,15.307617,-21.020508
3319703646,-0.161133,0.864746,-0.480225,-3.265381,0.579834,0.244141,14.282227,15.307617,-21.020508
3323238829,-0.157959,0.865234,-0.477783,-3.051758,0.366211,0.000000,14.282227,15.307617,-21.020508
3326523755,-0.161621,0.861816,-0.471680,-2.685547,0.183105,0.091553,14.282227,15.307617,-21.020508
3330327245,-0.161865,0.861328,-0.479004,-3.051758,0.457764,0.274658,15.014648,15.893555,-21.020508
3334373607,-0.160889,0.865479,-0.477295,-3.112793,0.244141,0.183105,15.014648,15.893555,-21.020508
3338329303,-0.160645,0.867432,-0.478760,-2.777100,0.305176,0.396729,15.014648,15.893555,-21.020508
3342595973,-0.164307,0.860840,-0.474365,-2.807617,0.457764,0.152588,14.135742,15.747070,-21.166992
3346687463,-0.161865,0.869873,-0.475342,-2.258301,0.488281,0.549316,14.135742,15.747070,-21.166992
3350356800,-0.163086,0.867676,-0.476563,-3.051758,0.427246,0.091553,14.135742,15.747070,-21.166992
3354680085,-0.157715,0.865967,-0.475098,-2.655029,0.366211,0.305176,14.135742,15.747070,-21.166992
3358664909,-0.158691,0.863770,-0.477051,-2.899170,0.335693,0.366211,14.135742,15.747070,-21.166992
3362675579,-0.159180,0.867676,-0.480957,-2.990723,0.366211,0.122070,14.355469,16.113281,-20.947266
3365588402,-0.160156,0.862793,-0.480469,-3.021240,0.396729,0.274658,14.355469,16.113281,-20.947266
3368589430,-0.161621,0.863525,-0.470215,-2.899170,0.213623,0.183105,14.135742,15.600586,-20.727539
3371640510,-0.161377,0.863037,-0.478516,-3.021240,0.152588,0.152588,14.135742,15.600586,-20.727539
3374638256,-0.160400,0.868164,-0.472900,-3.021240,0.457764,0.122070,14.135742,15.600586,-20.727539
3378509438,-0.161133,0.864258,-0.475098,-3.234863,0.122070,0.213623,14.135742,15.600586,-20.727539
3381654877,-0.162842,0.864746,-0.471436,-2.716064,0.427246,0.457764,14.135742,15.600586,-20.727539
3384643187,-0.164551,0.868408,-0.474365,-2.777100,0.610352,0.152588,14.135742,15.600586,-20.727539
3387834984,-0.158447,0.867920,-0.473145,-3.234863,0.305176,0.183105,14.355469,16.113281,-20.654297
3391669244,-0.160400,0.866699,-0.474365,-3.234863,0.213623,0.183105,14.355469,16.113281,-20.654297
3394750682,-0.158447,0.864502,-0.470215,-2.929688,0.427246,0.183105,14.355469,16.113281,-20.654297
3398722788,-0.160400,0.866211,-0.479004,-3.234863,0.213623,-0.061035,14.355469,16.113281,-20.654297
3402745766,-0.160889,0.866943,-0.473877,-3.051758,0.305176,-0.030518,14.355469,16.113281,-20.654297
3406696949,-0.166016,0.864014,-0.480713,-3.295898,0.488281,0.091553,14.355469,16.113281,-20.654297
3409734490,-0.161865,0.866943,-0.473145,-2.990723,0.457764,-0.091553,14.135742,15.600586,-21.020508
3412847518,-0.165771,0.867432,-0.476563,-3.082275,0.335693,0.488281,14.135742,15.600586,-21.020508
3416819624,-0.162109,0.862061,-0.473389,-2.929688,0.305176,0.244141,14.135742,15.600586,-21.020508
3420980447,-0.161865,0.865479,-0.473633,-3.112793,0.152588,-0.183105,14.428711,15.893555,-21.020508
3425045682,-0.159912,0.865479,-0.474609,-2.960205,0.335693,0.274658,14.428711,15.893555,-21.020508
3428993582,-0.158447,0.868408,-0.478760,-3.234863,0.488281,0.183105,14.428711,15.893555,-21.020508
3432932457,-0.161133,0.865723,-0.474854,-2.868652,0.305176,0.183105,14.428711,15.893555,-21.020508
3436929999,-0.161377,0.864014,-0.476563,-3.173828,0.366211,0.274658,14.428711,15.893555,-21.020508
3441024361,-0.161377,0.869141,-0.472656,-3.112793,0.427246,0.183105,13.916016,15.380859,-20.800781
3445029698,-0.162598,0.864990,-0.476318,-3.021240,0.457764,0.213623,13.916016,15.380859,-20.800781
3448980470,-0.161865,0.860107,-0.471924,-2.868652,0.549316,0.427246,14.428711,15.307617,-21.459961
3453026422,-0.163086,0.864014,-0.478760,-3.143311,0.305176,0.305176,14.428711,15.307617,-21.459961
3456941092,-0.160645,0.869385,-0.475098,-3.204346,0.335693,0.244141,14.428711,15.307617,-21.459961
3461041198,-0.160400,0.867676,-0.477783,-3.082275,0.457764,0.122070,14.428711,15.307617,-21.459961
3465058843,-0.160645,0.868408,-0.473145,-2.746582,0.396729,0.244141,14.428711,15.307617,-21.459961
3469067872,-0.162109,0.862549,-0.479004,-2.929688,0.549316,0.396729,14.501953,15.087891,-20.654297
3473047362,-0.160889,0.866699,-0.475830,-3.173828,0.244141,0.061035,14.501953,15.087891,-20.654297
3477087570,-0.156250,0.864502,-0.473877,-2.807617,0.427246,0.274658,14.501953,15.087891,-20.654297
3481113010,-0.162354,0.862549,-0.482910,-3.112793,0.305176,0.305176,14.501953,15.087891,-20.654297
3485065423,-0.159912,0.864746,-0.473877,-3.417969,0.335693,0.335693,14.501953,15.087891,-20.654297
3489045324,-0.162354,0.866211,-0.471924,-3.173828,0.305176,0.000000,14.575195,15.307617,-21.313477
3493135584,-0.159424,0.864014,-0.475098,-3.265381,0.488281,0.122070,14.575195,15.307617,-21.313477
3497149946,-0.162598,0.864502,-0.472656,-3.112793,0.335693,0.244141,13.989258,15.307617,-21.752930
3501165539,-0.160400,0.867432,-0.470703,-2.655029,0.305176,0.183105,13.989258,15.307617,-21.752930
3505120824,-0.160645,0.863770,-0.477539,-3.112793,0.244141,0.000000,13.989258,15.307617,-21.752930
3509148725,-0.161133,0.863525,-0.477539,-2.899170,0.274658,0.091553,13.989258,15.307617,-21.752930
3513170472,-0.161865,0.864990,-0.477783,-3.082275,0.518799,0.274658,13.989258,15.307617,-21.752930
3517175808,-0.159668,0.867920,-0.470215,-2.655029,0.518799,0.274658,14.062500,15.673828,-20.800781
3521170068,-0.161133,0.864014,-0.479980,-2.716064,0.427246,0.183105,14.062500,15.673828,-20.800781
3525204533,-0.165527,0.871338,-0.476563,-2.716064,0.427246,0.183105,14.062500,15.673828,-20.800781
3529183613,-0.162354,0.866455,-0.472412,-2.838135,0.457764,0.488281,14.501953,15.673828,-21.240234
3533223001,-0.162598,0.866699,-0.469482,-2.746582,0.610352,0.366211,14.501953,15.673828,-21.240234
3537236543,-0.159180,0.863281,-0.480957,-2.899170,0.335693,0.244141,14.062500,15.380859,-20.654297
3541199623,-0.164063,0.864746,-0.471680,-2.746582,0.457764,0.244141,14.062500,15.380859,-20.654297
3545276755,-0.163086,0.861816,-0.473633,-2.868652,0.396729,0.244141,14.062500,15.380859,-20.654297
3549090501,-0.161133,0.866455,-0.479980,-2.868652,0.244141,0.213623,14.794922,15.820313,-21.240234
3553176248,-0.161865,0.867920,-0.472168,-3.051758,0.183105,0.427246,14.794922,15.820313,-21.240234
3557233277,-0.160156,0.866699,-0.479004,-2.990723,0.335693,-0.030518,14.794922,15.820313,-21.240234
3561242716,-0.162109,0.864258,-0.472900,-2.777100,0.518799,0.244141,14.794922,15.820313,-21.240234
3565227130,-0.162842,0.864502,-0.473877,-3.051758,0.396729,0.366211,14.794922,15.820313,-21.240234
3569273902,-0.160156,0.867432,-0.471436,-2.929688,0.183105,0.305176,14.575195,15.600586,-20.874023
3573287034,-0.163086,0.867920,-0.473389,-3.082275,0.488281,0.213623,14.575195,15.600586,-20.874023
3577324371,-0.165527,0.866943,-0.476563,-3.173828,0.244141,0.427246,14.355469,15.380859,-21.240234
3581398630,-0.163818,0.863770,-0.474854,-2.960205,0.396729,0.488281,14.355469,15.380859,-21.240234
3585410941,-0.166016,0.864990,-0.481689,-2.868652,0.396729,0.274658,14.355469,15.380859,-21.240234
3589339560,-0.158936,0.866699,-0.482422,-2.807617,0.396729,0.061035,14.355469,15.380859,-21.240234
3593426538,-0.159424,0.863037,-0.479736,-2.624512,0.457764,0.183105,14.355469,15.380859,-21.240234
3597363361,-0.159180,0.864502,-0.477051,-2.746582,0.457764,0.030518,14.208984,15.966797,-20.947266
3601383467,-0.158203,0.868164,-0.473633,-2.929688,0.366211,0.213623,14.208984,15.966797,-20.947266
3605354753,-0.160889,0.862549,-0.477539,-2.990723,0.305176,0.091553,14.208984,15.966797,-20.947266
3609361730,-0.160400,0.864258,-0.472412,-2.807617,0.335693,0.427246,14.208984,15.966797,-20.947266
3613360913,-0.155518,0.864502,-0.477295,-2.960205,0.244141,0.274658,14.208984,15.966797,-20.947266
3617394557,-0.158203,0.864502,-0.473389,-3.021240,0.335693,0.152588,14.501953,15.673828,-21.240234
3621375279,-0.159912,0.863281,-0.472656,-2.685547,0.366211,0.396729,14.501953,15.673828,-21.240234
3625328513,-0.161621,0.866943,-0.478027,-2.593994,0.213623,0.396729,14.208984,15.673828,-21.240234
3628353336,-0.163086,0.865723,-0.472168,-2.685547,0.274658,0.122070,14.208984,15.527344,-20.947266
3632387800,-0.161621,0.867432,-0.475098,-2.716064,0.335693,0.274658,14.208984,15.527344,-20.947266
3635397034,-0.166016,0.866211,-0.475098,-2.990723,0.335693,0.518799,14.208984,15.527344,-20.947266
3638437036,-0.157959,0.862549,-0.472412,-3.143311,0.396729,0.091553,14.208984,15.527344,-20.947266
3641381859,-0.159912,0.864502,-0.479736,-2.960205,0.335693,0.274658,14.208984,15.527344,-20.947266
3644399297,-0.161621,0.866211,-0.478760,-2.716064,0.091553,0.122070,14.355469,15.527344,-21.093750
3648430891,-0.158447,0.865479,-0.475098,-2.868652,0.366211,0.152588,14.355469,15.527344,-21.093750
3652442381,-0.161133,0.870117,-0.473633,-2.807617,0.305176,0.305176,14.355469,15.527344,-21.093750
3656396436,-0.157715,0.866943,-0.473877,-2.929688,0.091553,0.091553,14.208984,15.673828,-21.240234
3660396029,-0.159180,0.863525,-0.472900,-2.746582,0.244141,0.000000,14.208984,15.673828,-21.240234
3664394801,-0.161865,0.866211,-0.479736,-2.777100,0.335693,0.122070,14.208984,15.673828,-21.240234
3667448342,-0.163086,0.862793,-0.474365,-2.990723,0.274658,0.335693,14.208984,15.673828,-21.240234
3670658601,-0.162109,0.864014,-0.470703,-2.838135,0.305176,0.366211,14.208984,15.673828,-21.240234
3673681783,-0.158936,0.864258,-0.470947,-2.929688,0.122070,0.152588,14.208984,15.673828,-21.240234
3676681580,-0.158936,0.859619,-0.472656,-2.838135,0.183105,-0.122070,14.501953,15.234375,-21.386719
