
Run: 1 Realtime: 0 Accel sens: 8 Gyro sens: 1000

Time Captured,Accel X,Accel Y,Accel Z,Gyro X,Gyro Y,Gyro Z,Magn X,Magn Y,Magn Z
2720822,-0.985840,-0.123047,0.102783,2.685547,-0.091553,-1.098633,8.349609,28.125000,-15.527344
5319388,-0.988037,-0.119629,0.097412,2.960205,-0.457764,-0.793457,8.349609,28.125000,-15.527344
8333135,-0.984619,-0.121094,0.100830,2.532959,-0.091553,-1.281738,8.349609,28.125000,-15.527344
10845547,-0.985840,-0.122559,0.102783,2.380371,-0.122070,-0.854492,7.983398,28.637695,-15.454102
13800626,-0.987549,-0.128418,0.097656,2.746582,-0.122070,-0.915527,7.983398,28.637695,-15.454102
16500526,-0.980225,-0.123047,0.100098,2.838135,-0.122070,-0.701904,7.983398,28.637695,-15.454102
19000220,-0.981689,-0.123535,0.099609,2.380371,-0.030518,-0.732422,7.983398,28.637695,-15.454102
21912633,-0.982422,-0.124756,0.095703,2.655029,-0.061035,-0.518799,8.056641,27.832031,-15.820313
24800020,-0.982666,-0.125977,0.101807,2.746582,-0.061035,-0.610352,8.056641,27.832031,-15.820313
27821151,-0.983154,-0.127441,0.104248,2.563477,0.061035,-0.457764,8.056641,27.832031,-15.820313
30313050,-0.980957,-0.123779,0.094482,2.746582,0.183105,-0.366211,8.056641,27.832031,-15.820313
33012129,-0.985596,-0.122314,0.109375,2.655029,0.122070,-0.396729,8.056641,28.271484,-16.113281
35609875,-0.984619,-0.124756,0.097412,2.716064,0.274658,-0.305176,8.056641,28.271484,-16.113281
38562082,-0.986572,-0.121582,0.093506,2.227783,0.366211,-0.335693,8.056641,28.271484,-16.113281
41599623,-0.992920,-0.119629,0.099365,2.807617,0.518799,-0.610352,7.910156,28.857422,-15.966797
44590805,-0.984375,-0.121582,0.097412,2.685547,0.335693,-0.335693,7.910156,28.857422,-15.966797
47558603,-0.986816,-0.122314,0.095215,2.349854,0.488281,-0.244141,7.910156,28.857422,-15.966797
50093579,-0.987061,-0.121582,0.091797,2.563477,0.305176,-0.366211,7.910156,28.857422,-15.966797
53133582,-0.987305,-0.123535,0.104492,2.593994,0.732422,-0.335693,7.910156,28.857422,-15.966797
55620968,-0.990234,-0.119629,0.096191,2.593994,0.427246,-0.457764,7.910156,28.857422,-15.966797
58116560,-0.989014,-0.119629,0.093750,2.593994,0.183105,-0.427246,7.910156,28.857422,-15.966797
61122921,-0.990234,-0.120850,0.097656,2.716064,0.518799,-0.427246,8.642578,28.564453,-16.259766
63664872,-0.990234,-0.121338,0.098389,2.807617,0.457764,-0.579834,8.642578,28.564453,-16.259766
66646618,-0.986084,-0.120850,0.098633,2.502441,0.183105,-0.488281,8.642578,28.564453,-16.259766
69609903,-0.988525,-0.119141,0.094482,2.777100,0.335693,-0.488281,8.642578,28.564453,-16.259766
72159648,-0.988770,-0.123779,0.087891,2.502441,0.549316,-0.579834,8.642578,28.564453,-16.259766
74657292,-0.989746,-0.121094,0.100342,2.563477,0.274658,-0.579834,8.642578,28.564453,-16.259766
77428166,-0.990723,-0.117676,0.097656,2.685547,0.244141,-0.885010,8.642578,28.564453,-16.259766
79893809,-0.989258,-0.121094,0.094971,2.777100,0.183105,-0.610352,8.642578,28.564453,-16.259766
82409913,-0.987549,-0.123291,0.090576,2.532959,0.274658,-0.854492,8.569336,28.344727,-16.040039
84907967,-0.986328,-0.116699,0.090088,2.532959,-0.091553,-0.762939,8.569336,28.344727,-16.040039
87569712,-0.990967,-0.123779,0.091309,2.624512,0.061035,-0.610352,8.569336,28.344727,-16.040039
90445202,-0.992920,-0.121338,0.087158,2.685547,-0.152588,-0.762939,8.569336,28.344727,-16.040039
93457307,-0.983643,-0.119385,0.092529,2.624512,0.000000,-0.640869,8.569336,28.344727,-16.040039
95881924,-0.985840,-0.123047,0.093262,2.471924,0.091553,-0.976563,8.569336,28.344727,-16.040039
98591260,-0.984619,-0.120605,0.094482,2.685547,0.152588,-0.671387,8.569336,28.344727,-16.040039
101102852,-0.986816,-0.124268,0.098389,2.624512,-0.152588,-0.854492,7.983398,27.905273,-15.747070
103641520,-0.990234,-0.121826,0.093750,2.624512,-0.274658,-0.793457,7.983398,27.905273,-15.747070
106149420,-0.987549,-0.118652,0.096436,2.716064,-0.091553,-0.823975,7.983398,27.905273,-15.747070
108643781,-0.988525,-0.120605,0.101318,2.685547,-0.366211,-0.976563,7.983398,27.905273,-15.747070
111147578,-0.988281,-0.124756,0.092041,2.685547,-0.427246,-0.885010,7.983398,27.905273,-15.747070
113648093,-0.991211,-0.120361,0.094238,2.624512,-0.488281,-0.793457,7.983398,27.905273,-15.747070
116144095,-0.987305,-0.119385,0.095947,2.227783,-0.244141,-0.946045,7.983398,27.905273,-15.747070
119119277,-0.990967,-0.119873,0.092773,2.655029,-0.427246,-0.976563,7.983398,27.905273,-15.747070
122097330,-0.988770,-0.121826,0.096680,2.685547,-0.549316,-0.915527,7.617188,28.125000,-15.820313
124648307,-0.988281,-0.119141,0.090820,2.777100,-0.213623,-1.037598,7.617188,28.125000,-15.820313
127304719,-0.988281,-0.121094,0.098877,2.471924,-0.732422,-0.976563,7.617188,28.125000,-15.820313
130320517,-0.989258,-0.121582,0.095947,2.868652,-0.640869,-1.037598,7.617188,28.125000,-15.820313
133326468,-0.989502,-0.121826,0.096680,2.746582,-0.549316,-1.342773,7.617188,28.125000,-15.820313
136279906,-0.987549,-0.120117,0.096191,2.716064,-0.610352,-1.251221,7.617188,28.125000,-15.820313
138793549,-0.990479,-0.122314,0.096436,2.563477,-0.671387,-1.312256,7.617188,28.125000,-15.820313
142306578,-0.989746,-0.121826,0.100342,2.624512,-0.823975,-1.190186,7.910156,28.417969,-16.113281
145316221,-0.986084,-0.122559,0.093018,2.838135,-0.610352,-1.251221,7.910156,28.417969,-16.113281
148063711,-0.985107,-0.122070,0.100830,2.593994,-0.610352,-1.434326,7.910156,28.417969,-16.113281
150809969,-0.985352,-0.123779,0.101318,2.838135,-0.946045,-0.915527,7.910156,28.417969,-16.113281
153769972,-0.987061,-0.125977,0.096680,2.838135,-0.976563,-1.220703,7.910156,28.417969,-16.113281
156595410,-0.986572,-0.123779,0.098389,2.593994,-0.854492,-0.915527,7.910156,28.417969,-16.113281
159118079,-0.987061,-0.122803,0.101074,2.655029,-0.854492,-1.312256,7.910156,28.417969,-16.113281
162110081,-0.985107,-0.120605,0.100830,2.807617,-0.854492,-0.976563,7.836914,28.198242,-15.747070
165092648,-0.982178,-0.124268,0.101074,2.593994,-0.671387,-0.793457,7.836914,28.198242,-15.747070
167755624,-0.985352,-0.124268,0.103271,2.807617,-0.762939,-1.159668,7.836914,28.198242,-15.747070
170789063,-0.981201,-0.125732,0.097412,2.410889,-1.068115,-0.915527,7.836914,28.198242,-15.747070
173287937,-0.987305,-0.124268,0.099121,2.593994,-0.793457,-0.488281,7.836914,28.198242,-15.747070
176008349,-0.984619,-0.121826,0.097168,2.502441,-0.854492,-0.823975,7.836914,28.198242,-15.747070
178475223,-0.983398,-0.120361,0.102539,2.838135,-0.823975,-0.762939,7.836914,28.198242,-15.747070
181025789,-0.987305,-0.121338,0.102783,2.563477,-0.518799,-0.640869,7.836914,28.344727,-15.454102
183474201,-0.979980,-0.122559,0.106201,2.471924,-1.068115,-0.732422,7.836914,28.344727,-15.454102
186033383,-0.982178,-0.120361,0.095459,2.563477,-0.427246,-0.671387,7.836914,28.344727,-15.454102
189036462,-0.985352,-0.127197,0.098877,2.502441,-0.488281,-0.518799,7.836914,28.344727,-15.454102
192032157,-0.986084,-0.117432,0.104736,2.685547,-0.640869,-0.854492,7.836914,28.344727,-15.454102
194983544,-0.983887,-0.119385,0.102295,2.685547,-0.762939,-0.610352,7.836914,28.344727,-15.454102
197729393,-0.983887,-0.122803,0.105469,2.380371,-0.518799,-0.640869,7.836914,28.344727,-15.454102
200481395,-0.986084,-0.122070,0.103027,2.624512,-0.427246,-0.915527,7.836914,28.784180,-15.747070
203016371,-0.985596,-0.121094,0.103760,2.532959,-0.488281,-0.701904,7.836914,28.784180,-15.747070
205483655,-0.984375,-0.122803,0.100342,2.685547,-0.244141,-0.976563,7.836914,28.784180,-15.747070
208016991,-0.987305,-0.119873,0.096924,2.685547,-0.335693,-0.915527,7.836914,28.784180,-15.747070
210944173,-0.989746,-0.120605,0.102539,2.746582,-0.366211,-0.915527,7.836914,28.784180,-15.747070
213947252,-0.988281,-0.124268,0.101074,2.777100,-0.579834,-0.854492,7.836914,28.784180,-15.747070
216439562,-0.987061,-0.120850,0.102051,2.532959,-0.427246,-1.190186,7.836914,28.784180,-15.747070
218948692,-0.988281,-0.118652,0.104248,2.532959,-0.610352,-1.098633,7.836914,28.784180,-15.747070
221441822,-0.989258,-0.124512,0.103027,2.624512,-0.732422,-1.190186,7.910156,28.564453,-16.259766
223891876,-0.988770,-0.120117,0.097900,2.777100,-0.640869,-1.251221,7.910156,28.564453,-16.259766
226467057,-0.990479,-0.118408,0.104492,2.685547,-1.068115,-1.312256,7.910156,28.564453,-16.259766
228985213,-0.990967,-0.118652,0.102539,2.685547,-1.007080,-1.434326,7.910156,28.564453,-16.259766
231975164,-0.990723,-0.121338,0.101074,2.532959,-1.159668,-1.434326,7.690430,28.344727,-15.893555
234924910,-0.992676,-0.120361,0.094971,2.807617,-1.007080,-1.647949,7.690430,28.344727,-15.893555
237437733,-0.991943,-0.116699,0.092773,2.746582,-1.525879,-1.678467,7.690430,28.344727,-15.893555
239918966,-0.988770,-0.120361,0.100586,2.624512,-1.403809,-1.922607,8.056641,28.857422,-16.113281
242953224,-0.991455,-0.121338,0.094971,2.471924,-1.739502,-1.892090,8.056641,28.857422,-16.113281
245458662,-0.990234,-0.119873,0.097168,2.807617,-1.678467,-1.983643,8.056641,28.857422,-16.113281
247959177,-0.991943,-0.117188,0.091064,2.746582,-1.861572,-2.075195,8.056641,28.857422,-16.113281
250916718,-0.993408,-0.114014,0.099854,2.410889,-1.770020,-2.014160,7.470703,28.271484,-15.820313
253418464,-0.989746,-0.119629,0.094482,2.777100,-2.136230,-2.319336,7.470703,28.271484,-15.820313
255917338,-0.992920,-0.120605,0.094238,2.685547,-2.349854,-2.136230,7.470703,28.271484,-15.820313
258431391,-0.989014,-0.120605,0.095215,2.716064,-2.471924,-2.502441,7.470703,28.271484,-15.820313
261528419,-0.990723,-0.119141,0.096680,2.807617,-2.624512,-2.380371,7.910156,28.125000,-16.113281
263981755,-0.987549,-0.120850,0.086670,2.624512,-2.716064,-2.471924,7.910156,28.125000,-16.113281
266481039,-0.990967,-0.126221,0.091797,2.288818,-3.021240,-2.410889,7.910156,28.125000,-16.113281
269031605,-0.992188,-0.124023,0.099121,2.655029,-3.021240,-2.746582,7.910156,28.125000,-16.113281
271536222,-0.993408,-0.125488,0.098389,2.716064,-3.143311,-2.624512,8.056641,28.125000,-15.820313
274038788,-0.991211,-0.118896,0.100830,2.807617,-3.021240,-2.868652,8.056641,28.125000,-15.820313
277008227,-0.991699,-0.117188,0.094238,2.624512,-3.265381,-2.685547,8.056641,28.125000,-15.820313
279525562,-0.994385,-0.120117,0.098145,2.655029,-3.479004,-2.838135,8.056641,28.125000,-15.820313
282727616,-0.993408,-0.120605,0.096924,2.685547,-3.845215,-3.021240,8.056641,28.125000,-15.820313
285313054,-0.990967,-0.115967,0.092041,2.777100,-4.089355,-3.143311,8.056641,28.125000,-15.820313
288261159,-0.992188,-0.121826,0.097656,2.593994,-3.967285,-3.021240,8.056641,28.125000,-15.820313
290924546,-0.998535,-0.117676,0.095215,2.471924,-4.302979,-3.356934,7.763672,28.271484,-15.820313
293583420,-0.998047,-0.121094,0.095215,2.716064,-4.760742,-3.387451,7.763672,28.271484,-15.820313
296578294,-0.997314,-0.116943,0.090088,2.655029,-4.669189,-3.540039,7.763672,28.271484,-15.820313
299242091,-0.994873,-0.124023,0.099609,2.746582,-5.615234,-3.540039,7.763672,28.271484,-15.820313
302233683,-1.000732,-0.119141,0.089355,2.502441,-5.645752,-3.784180,7.763672,28.271484,-15.820313
304892147,-1.001465,-0.123047,0.091309,2.624512,-6.347656,-3.723145,7.763672,28.271484,-15.820313
307743842,-1.001953,-0.123291,0.098633,2.471924,-6.408691,-3.540039,7.763672,28.271484,-15.820313
310618101,-1.003174,-0.128418,0.090332,2.502441,-6.988525,-3.509521,7.983398,28.198242,-15.454102
313515744,-0.999756,-0.128662,0.084717,2.410889,-7.568359,-3.662109,7.983398,28.198242,-15.454102
316015438,-0.999023,-0.124512,0.089355,2.319336,-7.873535,-3.509521,7.983398,28.198242,-15.454102
318523748,-1.000732,-0.126465,0.089844,2.258301,-8.666992,-3.326416,7.983398,28.198242,-15.454102
321505494,-1.003418,-0.130859,0.087891,2.319336,-9.338379,-3.265381,7.983398,28.198242,-15.454102
324057701,-0.999756,-0.127930,0.085693,2.380371,-9.735107,-2.868652,7.983398,28.198242,-15.454102
326570934,-1.001465,-0.128906,0.090088,2.380371,-10.284424,-2.960205,7.983398,28.198242,-15.454102
329065295,-1.007813,-0.130615,0.090088,1.922607,-10.681152,-2.929688,7.983398,28.198242,-15.454102
331674118,-1.005371,-0.133789,0.082275,2.105713,-11.230469,-2.746582,7.397461,28.637695,-16.040039
334513505,-1.002930,-0.135498,0.090088,2.075195,-11.749268,-2.410889,7.397461,28.637695,-16.040039
337558841,-1.005859,-0.141113,0.084961,2.410889,-12.817383,-2.105713,7.397461,28.637695,-16.040039
340075355,-1.007813,-0.137695,0.099365,2.593994,-13.092041,-1.678467,7.397461,28.637695,-16.040039
343028794,-1.006836,-0.130371,0.093262,2.258301,-13.580322,-1.739502,7.397461,28.637695,-16.040039
345584283,-1.007568,-0.128418,0.094971,1.983643,-14.587402,-1.190186,7.397461,28.637695,-16.040039
348075362,-1.008301,-0.136719,0.093506,2.471924,-14.923096,-1.312256,7.397461,28.637695,-16.040039
351030852,-1.006836,-0.134033,0.101807,2.258301,-15.228271,-1.068115,7.836914,28.344727,-15.307617
354044187,-1.008545,-0.132080,0.096191,2.349854,-15.777588,-1.098633,7.836914,28.344727,-15.307617
357009113,-1.005615,-0.131836,0.099854,2.380371,-16.601563,-1.068115,7.836914,28.344727,-15.307617
359573628,-1.005615,-0.129883,0.092041,2.288818,-17.181396,-0.946045,7.836914,28.344727,-15.307617
362539784,-1.010498,-0.125732,0.101074,2.655029,-17.486572,-1.007080,7.836914,28.344727,-15.307617
365052607,-1.005371,-0.128418,0.099121,2.471924,-18.035889,-0.823975,7.836914,28.344727,-15.307617
367667173,-1.007813,-0.123535,0.104736,2.380371,-18.341064,-1.159668,7.836914,28.344727,-15.307617
370267380,-1.013672,-0.118652,0.099609,2.380371,-19.287109,-0.976563,8.569336,27.612305,-15.454102
372766254,-1.003662,-0.131104,0.102783,2.349854,-19.134521,-1.098633,8.569336,27.612305,-15.454102
375566256,-1.005859,-0.124023,0.104248,2.441406,-19.805908,-0.946045,8.569336,27.612305,-15.454102
378646054,-1.006104,-0.114014,0.104492,2.380371,-19.927979,-1.281738,8.569336,27.612305,-15.454102
381248723,-1.006836,-0.117188,0.094482,2.227783,-20.996094,-1.495361,8.569336,27.612305,-15.454102
383732827,-1.004883,-0.119141,0.108643,2.166748,-21.118164,-1.617432,8.569336,27.612305,-15.454102
386232111,-1.009033,-0.121826,0.114990,2.441406,-21.514893,-1.434326,8.569336,27.612305,-15.454102
388761754,-1.006836,-0.117432,0.106934,2.105713,-21.881104,-1.831055,8.569336,27.612305,-15.454102
391286885,-1.006836,-0.115723,0.109863,2.227783,-22.094727,-1.953125,7.690430,28.051758,-15.161133
394250169,-1.012451,-0.115967,0.110352,2.105713,-22.460938,-2.014160,7.690430,28.051758,-15.161133
396697351,-1.008057,-0.125244,0.116455,2.044678,-23.345947,-1.983643,7.690430,28.051758,-15.161133
399196224,-1.008301,-0.129395,0.106689,1.861572,-23.437500,-2.288818,7.690430,28.051758,-15.161133
401698791,-1.001953,-0.123535,0.114014,2.532959,-24.047852,-2.258301,7.690430,28.051758,-15.161133
404196434,-0.999023,-0.125732,0.115967,2.349854,-24.108887,-2.502441,7.690430,28.051758,-15.161133
406757667,-1.001465,-0.118408,0.117188,2.227783,-24.993896,-2.685547,7.690430,28.051758,-15.161133
409801361,-1.000000,-0.122559,0.119629,2.014160,-25.329590,-2.441406,7.177734,28.417969,-15.234375
412793364,-0.997803,-0.124268,0.119873,1.892090,-25.726318,-2.502441,7.177734,28.417969,-15.234375
416276444,-0.998047,-0.122559,0.125732,1.861572,-26.275635,-2.624512,7.177734,28.417969,-15.234375
418824548,-1.008057,-0.125977,0.124756,2.288818,-27.191162,-2.197266,7.177734,28.417969,-15.234375
421334909,-1.002197,-0.130127,0.120117,1.953125,-27.740479,-2.441406,7.177734,28.417969,-15.234375
424335117,-1.007080,-0.131592,0.115723,1.983643,-28.137207,-1.922607,7.177734,28.417969,-15.234375
426843016,-1.010498,-0.136230,0.115967,2.136230,-29.113770,-1.831055,7.177734,28.417969,-15.234375
429816968,-1.012207,-0.130127,0.109131,2.044678,-30.212402,-1.617432,7.910156,27.978516,-14.648438
432292047,-1.020752,-0.130615,0.111572,1.739502,-31.250000,-1.098633,7.910156,27.978516,-14.648438
435240562,-1.025391,-0.136963,0.101074,1.586914,-32.409668,-0.854492,7.910156,27.978516,-14.648438
437729179,-1.041504,-0.139648,0.098145,1.708984,-33.874512,-0.335693,7.910156,27.978516,-14.648438
440230515,-1.043213,-0.142822,0.095215,1.831055,-35.247803,0.000000,7.910156,27.978516,-14.648438
443241389,-1.055420,-0.147461,0.084229,1.708984,-36.987305,0.518799,7.910156,27.978516,-14.648438
445741493,-1.062988,-0.150146,0.086182,2.044678,-38.879395,1.007080,7.910156,27.978516,-14.648438
448238726,-1.067871,-0.150879,0.086670,1.647949,-40.710449,1.373291,7.910156,27.978516,-14.648438
450739651,-1.081055,-0.151611,0.079834,2.258301,-42.968750,2.288818,7.763672,28.271484,-14.794922
453243448,-1.083252,-0.148438,0.082031,1.617432,-44.830322,2.990723,7.763672,28.271484,-14.794922
455840784,-1.094727,-0.159180,0.073730,2.105713,-46.966553,3.204346,7.763672,28.271484,-14.794922
458933709,-1.097168,-0.159912,0.072021,2.166748,-49.407959,4.028320,7.763672,28.271484,-14.794922
461842430,-1.098633,-0.156250,0.069092,2.136230,-52.307129,4.608154,7.763672,28.271484,-14.794922
464338842,-1.105225,-0.149658,0.072266,2.380371,-55.175781,5.218506,7.763672,28.271484,-14.794922
466943562,-1.108887,-0.148926,0.060303,2.349854,-57.586670,5.676270,7.763672,28.271484,-14.794922
469855154,-1.108887,-0.149170,0.071777,2.471924,-60.424805,6.256104,7.910156,28.564453,-15.087891
472359772,-1.104980,-0.145264,0.068359,2.532959,-63.385010,6.469727,7.910156,28.564453,-15.087891
474855363,-1.110596,-0.143799,0.070801,2.746582,-66.375732,6.561279,7.910156,28.564453,-15.087891
477357930,-1.115479,-0.137939,0.063965,2.899170,-69.335938,6.622314,7.910156,28.564453,-15.087891
479904393,-1.121338,-0.126465,0.062012,3.173828,-72.326660,6.805420,7.910156,28.564453,-15.087891
482855780,-1.130371,-0.116699,0.050537,2.838135,-76.110840,6.347656,7.910156,28.564453,-15.087891
485353834,-1.131836,-0.112549,0.041260,2.929688,-79.925537,6.042480,7.910156,28.564453,-15.087891
488402452,-1.142334,-0.098877,0.040283,3.143311,-83.557129,5.706787,7.910156,28.564453,-15.087891
491473223,-1.152588,-0.097656,0.036621,2.960205,-87.890625,5.187988,8.642578,28.271484,-13.916016
494424610,-1.152344,-0.100342,0.037354,2.807617,-92.834473,5.249023,8.642578,28.271484,-13.916016
496894356,-1.145264,-0.101074,0.052734,2.471924,-97.106934,4.760742,8.642578,28.271484,-13.916016
499451076,-1.141846,-0.101807,0.057373,2.593994,-100.311279,4.394531,8.862305,28.491211,-13.403320
501960616,-1.126465,-0.112061,0.069092,2.563477,-103.851318,3.906250,8.862305,28.491211,-13.403320
504905439,-1.114502,-0.112061,0.070313,2.502441,-106.658936,3.601074,8.862305,28.491211,-13.403320
507754673,-1.095459,-0.106201,0.089844,2.593994,-110.229492,2.990723,8.862305,28.491211,-13.403320
510257239,-1.077148,-0.119141,0.107910,2.929688,-113.250732,2.593994,8.276367,28.344727,-13.403320
512760215,-1.067139,-0.115234,0.113770,3.021240,-115.905762,2.471924,8.276367,28.344727,-13.403320
515328012,-1.057861,-0.108398,0.118896,3.295898,-118.103027,2.166748,8.276367,28.344727,-13.403320
517859296,-1.036865,-0.111816,0.136230,2.929688,-120.208740,1.525879,8.276367,28.344727,-13.403320
520583401,-1.025635,-0.102783,0.154053,2.899170,-122.070313,1.342773,7.177734,28.417969,-12.597656
523516737,-1.010742,-0.109375,0.169922,3.082275,-124.023438,0.762939,7.177734,28.417969,-12.597656
526116123,-0.994873,-0.101807,0.180908,3.082275,-125.213623,0.305176,7.177734,28.417969,-12.597656
528617869,-0.988525,-0.099121,0.190918,3.448486,-126.464844,-0.396729,7.617188,27.978516,-12.158203
531136435,-0.977295,-0.095947,0.216309,3.387451,-127.685547,-1.281738,7.617188,27.978516,-12.158203
533992643,-0.968262,-0.095703,0.220947,3.265381,-128.143311,-1.678467,7.617188,27.978516,-12.158203
536848850,-0.959717,-0.085449,0.225098,3.326416,-128.570557,-2.471924,7.617188,27.978516,-12.158203
539603724,-0.955566,-0.075684,0.241699,3.143311,-129.760742,-3.173828,7.910156,28.271484,-12.304688
542167829,-0.947998,-0.071045,0.250488,2.746582,-130.310059,-4.028320,7.910156,28.271484,-12.304688
544619113,-0.942139,-0.080078,0.248047,2.319336,-130.767822,-4.699707,7.910156,28.271484,-12.304688
547118807,-0.937256,-0.072998,0.253418,2.197266,-131.622314,-5.340576,7.910156,28.271484,-12.304688
550116964,-0.931396,-0.071777,0.258789,1.708984,-131.927490,-6.042480,7.910156,28.271484,-12.304688
552838197,-0.936035,-0.079102,0.266113,1.617432,-132.537842,-7.049561,7.910156,28.271484,-12.304688
555323122,-0.933594,-0.085449,0.263184,1.373291,-133.758545,-7.202148,7.910156,28.271484,-12.304688
557822816,-0.933350,-0.083008,0.258057,1.190186,-134.155273,-7.690430,7.910156,28.271484,-12.304688
560352049,-0.929199,-0.083740,0.265625,0.793457,-134.857178,-8.636475,7.690430,27.465820,-10.620117
563265692,-0.931641,-0.082275,0.265137,0.762939,-135.833740,-8.972168,7.690430,27.465820,-10.620117
565867130,-0.940186,-0.092041,0.279053,-0.030518,-136.688232,-9.124756,7.690430,27.465820,-10.620117
568587543,-0.942139,-0.095215,0.287354,0.244141,-137.481689,-9.460449,7.690430,27.465820,-10.620117
571072058,-0.938477,-0.101563,0.294189,0.061035,-138.519287,-9.887695,7.690430,27.465820,-10.620117
573570111,-0.948486,-0.101563,0.302002,-0.122070,-139.526367,-10.162354,7.690430,27.465820,-10.620117
576347549,-0.943359,-0.117920,0.296631,0.030518,-140.197754,-10.192871,7.690430,27.465820,-10.620117
578903859,-0.946777,-0.117188,0.308594,0.061035,-141.540527,-10.467529,8.349609,27.685547,-9.814453
581399451,-0.952637,-0.121338,0.306396,-0.122070,-142.639160,-10.742188,8.349609,27.685547,-9.814453
583944274,-0.946777,-0.128418,0.316162,0.549316,-143.890381,-10.803223,8.349609,27.685547,-9.814453
586705712,-0.949707,-0.124512,0.310303,0.244141,-145.202637,-10.650635,8.349609,27.685547,-9.814453
589761304,-0.949219,-0.127441,0.323730,0.366211,-146.148682,-10.437012,8.349609,27.685547,-9.814453
593217717,-0.944580,-0.122559,0.320801,0.183105,-148.071289,-10.467529,8.349609,27.685547,-9.814453
596163360,-0.939697,-0.125000,0.324463,0.244141,-149.719238,-10.040283,8.349609,27.685547,-9.814453
598708183,-0.936523,-0.125732,0.331787,0.091553,-151.641846,-9.918213,7.690430,28.051758,-8.715820
601507365,-0.935059,-0.129395,0.328125,0.122070,-152.648926,-9.552002,7.690430,28.051758,-8.715820
604009110,-0.936035,-0.130859,0.333496,0.335693,-154.693604,-9.063721,7.690430,28.051758,-8.715820
606658138,-0.935791,-0.142334,0.340576,0.274658,-156.280518,-9.246826,7.690430,28.051758,-8.715820
609249730,-0.934814,-0.150391,0.345947,0.366211,-157.501221,-8.300781,7.690430,28.051758,-8.715820
611777732,-0.933838,-0.146484,0.347900,0.762939,-159.667969,-8.605957,7.690430,28.051758,-8.715820
614720504,-0.935303,-0.151123,0.341797,0.976563,-161.529541,-8.056641,7.690430,28.051758,-8.715820
617684609,-0.926270,-0.153076,0.345947,1.220703,-162.872314,-7.476807,7.690430,28.051758,-8.715820
620169944,-0.927002,-0.155273,0.353760,1.525879,-165.374756,-7.110596,7.836914,27.026367,-7.836914
623207485,-0.925293,-0.148438,0.351563,1.434326,-167.053223,-6.744385,7.836914,27.026367,-7.836914
625661231,-0.921631,-0.155273,0.360840,1.922607,-169.433594,-6.256104,7.836914,27.026367,-7.836914
628732003,-0.920898,-0.154297,0.362793,1.708984,-171.478271,-5.645752,7.836914,27.026367,-7.836914
631231287,-0.918945,-0.145996,0.368896,2.044678,-174.011230,-5.065918,7.836914,27.026367,-7.836914
634185135,-0.916504,-0.156738,0.370117,2.044678,-176.391602,-4.730225,7.836914,27.026367,-7.836914
636692214,-0.916016,-0.160156,0.378662,2.624512,-178.924561,-4.089355,7.836914,27.026367,-7.836914
639742883,-0.911865,-0.162598,0.377441,2.838135,-181.091309,-3.845215,8.056641,26.660156,-6.445313
642682783,-0.918701,-0.155518,0.385498,3.387451,-183.959961,-3.295898,8.056641,26.660156,-6.445313
645682991,-0.911133,-0.161621,0.380127,3.662109,-187.011719,-3.082275,8.056641,26.660156,-6.445313
648182275,-0.905273,-0.157227,0.379639,3.967285,-189.849854,-2.319336,8.056641,26.660156,-6.445313
650732021,-0.904785,-0.170898,0.392334,4.547119,-192.504883,-2.227783,8.056641,26.660156,-6.445313
653733869,-0.900879,-0.156738,0.386475,5.065918,-195.098877,-1.953125,8.056641,26.660156,-6.445313
656279512,-0.903320,-0.161377,0.392334,5.340576,-198.272705,-1.586914,8.056641,26.660156,-6.445313
658933873,-0.900879,-0.159912,0.398438,5.828857,-201.110840,-0.915527,8.496094,26.367188,-4.687500
661447106,-0.895508,-0.163818,0.412598,6.713867,-204.193115,-1.312256,8.496094,26.367188,-4.687500
663945160,-0.895020,-0.158691,0.403076,6.622314,-207.855225,-0.762939,8.496094,26.367188,-4.687500
666393162,-0.893799,-0.162354,0.415527,7.232666,-210.357666,-0.762939,8.496094,26.367188,-4.687500
668943728,-0.889160,-0.170654,0.414307,7.934570,-213.531494,-0.946045,8.496094,26.367188,-4.687500
671545986,-0.884033,-0.161621,0.411865,8.361816,-216.735840,-0.671387,8.496094,26.367188,-4.687500
674047732,-0.880127,-0.161377,0.421387,9.307861,-220.428467,-0.732422,8.496094,26.367188,-4.687500
676646709,-0.874756,-0.166260,0.414307,10.314941,-223.480225,-1.068115,8.496094,26.367188,-4.687500
679582096,-0.874512,-0.162598,0.417480,10.711670,-227.203369,-0.640869,8.422852,25.561523,-3.588867
682084251,-0.870850,-0.150635,0.416016,11.535645,-231.567383,-0.946045,8.422852,25.561523,-3.588867
684580664,-0.865479,-0.162598,0.426758,12.237549,-234.985352,-1.312256,8.422852,25.561523,-3.588867
687087332,-0.862061,-0.156494,0.422363,12.908936,-239.044189,-1.190186,8.422852,25.561523,-3.588867
690087130,-0.857910,-0.159912,0.433594,13.641357,-242.736816,-1.708984,8.349609,25.634766,-2.929688
693051235,-0.854980,-0.151855,0.425537,14.495850,-247.833252,-1.739502,8.349609,25.634766,-2.929688
695540673,-0.845215,-0.145752,0.429932,15.075684,-252.197266,-2.044678,8.349609,25.634766,-2.929688
698138008,-0.843994,-0.141846,0.437012,15.747070,-256.500244,-2.685547,8.129883,24.975586,-1.977539
701163241,-0.835205,-0.159424,0.443115,16.723633,-261.474609,-2.899170,8.129883,24.975586,-1.977539
703773295,-0.820801,-0.151855,0.439209,18.066406,-266.235352,-3.967285,8.129883,24.975586,-1.977539
706721400,-0.826904,-0.135254,0.429932,18.432617,-271.087646,-4.180908,8.129883,24.975586,-1.977539
709276889,-0.823730,-0.129883,0.445068,19.439697,-276.458740,-4.882813,8.422852,24.536133,-0.659180
712258225,-0.811035,-0.135742,0.427246,20.019531,-281.555176,-5.462646,8.422852,24.536133,-0.659180
714763253,-0.801025,-0.124512,0.437500,20.233154,-287.200928,-5.981445,8.422852,24.536133,-0.659180
717302332,-0.797852,-0.114746,0.434570,21.179199,-292.480469,-6.774902,8.422852,24.536133,-0.659180
720303770,-0.792480,-0.126465,0.432129,21.667480,-297.302246,-7.202148,8.203125,23.876953,-0.439453
723313824,-0.784668,-0.115234,0.437256,22.186279,-303.314209,-7.965088,8.203125,23.876953,-0.439453
726192595,-0.770996,-0.114258,0.443115,22.583008,-310.180664,-8.972168,8.203125,23.876953,-0.439453
729136598,-0.757080,-0.116699,0.425049,23.071289,-316.040039,-9.552002,8.129883,23.510742,-0.073242
731890651,-0.750000,-0.117188,0.424316,23.834229,-323.059082,-10.559082,8.129883,23.510742,-0.073242
734333320,-0.737793,-0.099365,0.418701,24.108887,-328.948975,-10.955811,8.129883,23.510742,-0.073242
736991373,-0.729492,-0.102539,0.410400,24.322510,-334.472656,-11.871338,8.129883,23.510742,-0.073242
739724094,-0.721191,-0.097412,0.413330,24.597168,-340.667725,-12.664795,8.642578,22.119141,1.025391
742229532,-0.708496,-0.088379,0.405762,24.505615,-346.984863,-13.488770,8.642578,22.119141,1.025391
744764098,-0.700928,-0.093506,0.401855,25.268555,-352.935791,-14.099121,8.642578,22.119141,1.025391
747521023,-0.690186,-0.086182,0.395508,24.963379,-359.344482,-15.045166,8.642578,22.119141,1.025391
750511795,-0.681885,-0.081055,0.389893,25.665283,-366.424561,-15.655518,8.276367,21.752930,2.270508
753239592,-0.667480,-0.069824,0.377686,25.360107,-373.931885,-16.357422,8.276367,21.752930,2.270508
755755697,-0.656982,-0.074707,0.375977,25.665283,-380.828857,-17.303467,8.276367,21.752930,2.270508
758808417,-0.648438,-0.069336,0.375488,25.451660,-387.084961,-18.005371,8.276367,21.752930,2.270508
761740522,-0.631592,-0.059082,0.360596,25.360107,-395.202637,-18.524170,8.276367,21.752930,2.270508
764700114,-0.623291,-0.053223,0.357910,25.085449,-402.954102,-19.195557,8.276367,21.752930,2.270508
767137039,-0.608398,-0.048096,0.344727,24.780273,-411.682129,-19.744873,8.276367,21.752930,2.270508
769939503,-0.596680,-0.039307,0.339355,24.383545,-418.243408,-20.019531,7.690430,19.409180,3.735352
772506890,-0.579590,-0.025391,0.334473,23.773193,-426.635742,-20.416260,7.690430,19.409180,3.735352
775223610,-0.568115,-0.033447,0.324951,22.949219,-434.661865,-21.057129,7.690430,19.409180,3.735352
778021971,-0.549316,-0.036133,0.315430,21.942139,-442.535400,-21.453857,7.690430,19.409180,3.735352
780471614,-0.523682,-0.027100,0.294434,21.270752,-451.293945,-21.820068,7.690430,19.409180,3.735352
783019309,-0.525146,-0.027344,0.271729,20.629883,-458.435059,-22.033691,7.690430,19.409180,3.735352
785517362,-0.513672,-0.036621,0.261230,19.714355,-466.033936,-22.674561,7.690430,19.409180,3.735352
788217262,-0.508301,-0.034424,0.229004,19.897461,-473.663330,-22.888184,7.617188,16.992188,4.980469
790757161,-0.494629,-0.057373,0.218262,19.104004,-481.597900,-23.681641,7.617188,16.992188,4.980469
793257676,-0.484375,-0.062988,0.181152,18.615723,-488.342285,-24.047852,7.617188,16.992188,4.980469
795902601,-0.480469,-0.067383,0.182373,18.829346,-495.422363,-25.421143,7.617188,16.992188,4.980469
798405167,-0.476563,-0.086426,0.150146,19.165039,-502.746582,-26.306152,7.617188,16.992188,4.980469
800968452,-0.411865,-0.104736,0.155762,20.111084,-507.690430,-27.252197,7.617188,16.992188,4.980469
803955941,-0.222168,-0.093994,0.237305,20.507813,-506.469727,-27.770996,7.617188,16.992188,4.980469
806472046,0.575684,-0.003418,0.479980,18.280029,-489.257813,-30.303955,7.617188,16.992188,4.980469
809056253,2.778809,0.050049,1.122803,15.502930,-429.840088,-27.954102,8.422852,13.403320,8.129883
811957999,4.371826,0.328857,1.789795,7.690430,-316.253662,-16.143799,8.422852,13.403320,8.129883
814942207,6.113037,0.902100,3.139404,-30.670166,-153.564453,15.838623,8.422852,13.403320,8.129883
817649491,6.059082,-0.283203,4.604980,-42.022705,-25.726318,30.731201,8.422852,13.403320,8.129883
820584468,5.054932,-0.879883,4.690186,-16.967773,50.933838,24.383545,8.422852,13.403320,8.129883
823073085,3.699951,-0.911621,3.880615,15.655518,102.783203,8.636475,8.422852,13.403320,8.129883
826100370,2.823730,-0.460938,3.203613,27.130127,113.769531,-0.579834,8.422852,13.403320,8.129883
829071859,1.643555,-0.132813,2.336426,25.970459,116.333008,-9.002686,8.276367,12.524414,8.422852
831569502,0.866699,0.014648,1.642334,21.514893,105.773926,-13.092041,8.276367,12.524414,8.422852
834484787,0.435303,0.101807,1.082031,17.150879,99.761963,-13.946533,8.276367,12.524414,8.422852
837054635,0.096680,0.089844,0.758057,12.786865,91.644287,-13.275146,8.276367,12.524414,8.422852
839544893,-0.010254,0.069336,0.572021,10.070801,84.899902,-12.725830,8.276367,12.524414,8.422852
842553716,-0.113770,0.036133,0.404541,7.141113,81.390381,-12.237549,8.276367,12.524414,8.422852
845025924,-0.169434,0.006104,0.318848,4.882813,74.584961,-12.390137,8.276367,12.524414,8.422852
847930541,-0.170410,0.006836,0.268311,1.800537,71.197510,-12.908936,7.470703,13.183594,7.470703
850444595,-0.193115,-0.014648,0.257568,-0.518799,67.779541,-13.549805,7.470703,13.183594,7.470703
852940597,-0.210205,-0.005371,0.257813,-2.655029,63.415527,-14.221191,7.470703,13.183594,7.470703
855738548,-0.244629,-0.008545,0.286621,-4.425049,60.302734,-14.495850,7.470703,13.183594,7.470703
858739986,-0.299072,-0.039551,0.367188,-4.852295,55.114746,-14.282227,7.470703,13.183594,7.470703
861721732,-0.353271,-0.044922,0.455566,-4.821777,48.400879,-14.251709,7.470703,13.183594,7.470703
864680094,-0.424805,-0.054443,0.565674,-4.882813,41.564941,-14.160156,7.470703,13.183594,7.470703
867473942,-0.485840,-0.057861,0.672852,-5.157471,31.677246,-14.556885,7.763672,13.037109,7.031250
870025739,-0.532715,-0.063965,0.746826,-5.462646,22.399902,-14.617920,7.763672,13.037109,7.031250
872527074,-0.603516,-0.071533,0.852539,-5.920410,11.627197,-14.984131,7.763672,13.037109,7.031250
874975487,-0.652832,-0.080566,0.938721,-5.584717,0.915527,-15.045166,7.763672,13.037109,7.031250
877592514,-0.678711,-0.096436,0.991211,-4.943848,-9.460449,-14.739990,7.763672,13.037109,7.031250
880561132,-0.710938,-0.096436,1.033691,-3.875732,-21.514893,-14.495850,7.763672,13.037109,7.031250
883517032,-0.710205,-0.100586,1.045898,-3.021240,-34.698486,-13.916016,7.763672,13.037109,7.031250
886019188,-0.698486,-0.110840,1.032471,-2.532959,-46.295166,-13.397217,7.763672,13.037109,7.031250
888530370,-0.663574,-0.121338,1.001465,-2.197266,-55.206299,-13.092041,7.983398,13.549805,6.665039
891026372,-0.598389,-0.120361,0.940674,-1.953125,-61.706543,-12.054443,7.983398,13.549805,6.665039
893534271,-0.553467,-0.120117,0.902100,-2.197266,-65.765381,-10.955811,7.983398,13.549805,6.665039
896477863,-0.463379,-0.123291,0.860840,-3.265381,-66.253662,-9.643555,7.983398,13.549805,6.665039
899475199,-0.394531,-0.130615,0.856689,-3.784180,-63.598633,-7.507324,7.836914,13.842773,6.665039
902961151,-0.286377,-0.136230,0.870361,-5.310059,-56.427002,-4.455566,7.836914,13.842773,6.665039
905450589,-0.101318,-0.141846,1.028564,-6.988525,-44.952393,-1.190186,7.836914,13.842773,6.665039
908261258,0.044189,-0.139648,1.165771,-8.911133,-38.635254,1.190186,7.543945,13.256836,7.543945
910804439,0.278564,-0.233154,1.295898,-6.896973,-29.052734,2.136230,7.543945,13.256836,7.543945
913263518,0.420654,-0.297852,1.395020,-2.441406,-19.775391,1.708984,7.543945,13.256836,7.543945
915758700,0.477783,-0.307617,1.424561,2.288818,-12.969971,1.159668,7.543945,13.256836,7.543945
918352343,0.554688,-0.257324,1.404297,5.218506,-6.103516,0.091553,7.543945,12.963867,7.397461
921339832,0.561768,-0.209717,1.360352,6.256104,0.488281,-0.946045,7.543945,12.963867,7.397461
923875629,0.507324,-0.142334,1.239502,6.317139,5.920410,-1.281738,7.543945,12.963867,7.397461
926647734,0.390381,-0.119873,1.110107,6.622314,9.094238,-1.190186,7.543945,12.963867,7.397461
929696762,0.245850,-0.116699,0.959717,7.659912,12.542725,-0.518799,8.056641,13.037109,7.763672
932647329,0.098877,-0.101074,0.863770,7.659912,16.235352,-0.213623,8.056641,13.037109,7.763672
935508049,-0.008057,-0.091797,0.827393,7.324219,17.944336,-0.427246,8.056641,13.037109,7.763672
938509488,-0.070557,-0.095947,0.833496,7.446289,18.066406,-0.366211,8.276367,13.403320,7.397461
940999336,-0.144043,-0.083984,0.865234,6.927490,15.991211,-0.366211,8.276367,13.403320,7.397461
944039338,-0.204346,-0.075439,0.895020,6.530762,13.763428,-0.549316,8.276367,13.403320,7.397461
946996469,-0.245850,-0.068115,0.922363,5.737305,9.368896,-0.335693,8.276367,13.403320,7.397461
949938420,-0.275879,-0.072021,0.946289,5.218506,5.554199,-0.518799,8.276367,13.403320,7.397461
952938628,-0.282471,-0.076416,0.959229,4.852295,1.342773,-0.427246,8.276367,13.403320,7.397461
955483860,-0.259766,-0.087402,0.987305,3.997803,-2.044678,-0.823975,8.276367,13.403320,7.397461
958236273,-0.220947,-0.083496,1.003174,4.028320,-4.852295,-1.190186,8.496094,13.037109,7.910156
960795865,-0.156006,-0.079834,1.006348,3.356934,-6.652832,-1.220703,8.496094,13.037109,7.910156
963774739,-0.092529,-0.062012,1.003174,2.960205,-6.805420,-1.129150,8.496094,13.037109,7.910156
966285100,-0.027344,-0.066650,1.003662,2.441406,-6.988525,-1.190186,8.496094,13.037109,7.910156
968790538,0.005371,-0.072510,1.008301,1.922607,-6.439209,-0.885010,8.496094,13.037109,7.910156
971309514,0.049805,-0.075684,1.008301,1.525879,-4.730225,-1.190186,8.496094,13.037109,7.910156
974309312,0.069336,-0.079590,1.012207,1.342773,-3.173828,-1.312256,8.496094,13.037109,7.910156
976784391,0.076904,-0.087402,1.009521,1.037598,-1.647949,-1.068115,8.056641,13.037109,7.470703
979231572,0.068848,-0.095947,1.013428,1.007080,0.518799,-0.854492,8.056641,13.037109,7.470703
981879780,0.051514,-0.104736,1.011230,1.190186,1.647949,-1.251221,8.056641,13.037109,7.470703
984827884,0.008301,-0.111084,1.015625,0.946045,2.899170,-0.976563,8.056641,13.037109,7.470703
987757118,-0.033691,-0.126221,1.015137,1.464844,3.326416,-0.579834,8.056641,13.037109,7.470703
990761838,-0.064209,-0.129150,1.001953,1.586914,3.143311,-0.793457,8.056641,13.037109,7.470703
993754251,-0.077881,-0.127197,0.996094,2.014160,2.563477,-0.885010,8.056641,13.037109,7.470703
996400407,-0.085693,-0.125488,0.981445,2.502441,1.983643,-0.701904,8.056641,13.037109,7.470703
998798357,-0.090088,-0.123291,0.973877,2.777100,1.220703,-0.762939,7.910156,13.623047,7.031250
1001460924,-0.078613,-0.119873,0.976318,3.051758,0.335693,-1.037598,7.910156,13.623047,7.031250
1004462362,-0.071289,-0.117432,0.974365,3.509521,-0.152588,-0.762939,7.910156,13.623047,7.031250
1007426467,-0.053711,-0.110107,0.980957,3.479004,-0.488281,-1.068115,7.910156,13.623047,7.031250
1010276521,-0.039551,-0.103271,0.984619,3.662109,-0.549316,-0.549316,7.910156,13.623047,7.031250
1013232010,-0.026367,-0.097412,0.988037,3.601074,-0.091553,-0.823975,7.910156,13.623047,7.031250
1015730064,-0.023926,-0.090332,0.997559,3.540039,0.762939,-0.915527,7.910156,13.623047,7.031250
1018227707,-0.028564,-0.084961,1.005127,3.387451,0.762939,-1.251221,7.983398,13.403320,7.397461
1021083094,-0.032959,-0.086670,1.015625,2.990723,0.640869,-0.701904,7.983398,13.403320,7.397461
1024002891,-0.036865,-0.086426,1.014404,2.593994,1.037598,-1.129150,7.983398,13.403320,7.397461
1026520637,-0.044434,-0.085938,1.013672,2.349854,1.037598,-1.037598,7.983398,13.403320,7.397461
1029472844,-0.048828,-0.085693,1.009521,2.166748,0.915527,-0.915527,7.983398,13.403320,7.397461
1032019308,-0.050293,-0.088623,1.003418,2.136230,0.915527,-0.854492,7.983398,13.403320,7.397461
1034967003,-0.052246,-0.097656,1.000977,1.861572,0.396729,-0.854492,7.983398,13.403320,7.397461
1037467928,-0.047852,-0.102295,0.997803,1.708984,0.579834,-0.823975,8.129883,12.963867,7.250977
1040218699,-0.047852,-0.111816,0.997314,2.014160,0.274658,-0.976563,8.129883,12.963867,7.250977
1042731522,-0.044922,-0.112549,0.993164,2.075195,0.305176,-0.915527,8.129883,12.963867,7.250977
1045694396,-0.037842,-0.118164,0.991211,2.655029,0.213623,-0.579834,8.129883,12.963867,7.250977
1048191629,-0.035889,-0.115234,0.989746,2.563477,0.488281,-1.098633,8.129883,12.963867,7.250977
1050906298,-0.038086,-0.112793,0.996094,2.990723,0.579834,-0.915527,8.129883,12.963867,7.250977
1053924557,-0.037598,-0.112305,0.990479,3.234863,0.701904,-0.823975,8.129883,12.963867,7.250977
1056912046,-0.041748,-0.105957,0.995605,3.143311,0.549316,-0.732422,8.203125,13.037109,7.031250
1059680459,-0.044189,-0.099121,0.991699,3.173828,0.793457,-0.854492,8.203125,13.037109,7.031250
1062187948,-0.047363,-0.093018,0.993652,3.112793,0.610352,-0.823975,8.203125,13.037109,7.031250
1064695437,-0.051514,-0.091309,0.995850,3.051758,0.366211,-0.976563,8.203125,13.037109,7.031250
1067438414,-0.047607,-0.090088,0.999023,3.051758,0.549316,-0.823975,8.203125,13.037109,7.031250
1069908159,-0.049805,-0.088623,1.003906,2.838135,0.427246,-0.610352,8.203125,13.037109,7.031250
1072388572,-0.041992,-0.095215,0.999023,2.655029,0.396729,-0.854492,8.203125,13.037109,7.031250
1075335446,-0.046631,-0.091064,1.005859,2.410889,0.488281,-0.854492,8.203125,13.037109,7.031250
1077839653,-0.042480,-0.094971,0.996826,2.014160,0.427246,-0.946045,8.422852,13.110352,7.836914
1080788168,-0.040283,-0.097900,1.001709,2.258301,0.366211,-1.068115,8.422852,13.110352,7.836914
1083239452,-0.040039,-0.103516,0.996094,2.288818,0.549316,-0.701904,8.422852,13.110352,7.836914
1086197404,-0.041260,-0.103760,0.998779,2.288818,0.823975,-0.885010,8.422852,13.110352,7.836914
1088703662,-0.041260,-0.106934,0.996094,2.532959,0.488281,-0.915527,8.422852,13.110352,7.836914
1091191049,-0.041260,-0.108887,0.997314,2.441406,0.762939,-0.793457,8.422852,13.110352,7.836914
1094158846,-0.042236,-0.105957,0.996338,2.532959,0.640869,-0.823975,8.422852,13.110352,7.836914
1096750438,-0.043701,-0.107422,0.989502,2.716064,0.549316,-0.854492,8.349609,13.037109,7.470703
1099494645,-0.043701,-0.105225,0.994141,2.868652,0.366211,-0.762939,8.349609,13.037109,7.470703
1101952493,-0.043213,-0.109375,0.991455,2.593994,0.457764,-0.885010,8.349609,13.037109,7.470703
1104511265,-0.044678,-0.101074,0.999268,2.929688,0.366211,-0.854492,8.349609,13.037109,7.470703
1106971164,-0.042236,-0.103027,0.992188,3.112793,0.457764,-0.701904,8.349609,12.597656,7.617188
1109529525,-0.042236,-0.094727,0.998535,2.777100,0.488281,-0.640869,8.349609,12.597656,7.617188
1112020604,-0.042725,-0.100342,1.002441,2.838135,0.488281,-0.762939,8.349609,12.597656,7.617188
1114517837,-0.038330,-0.098877,0.997314,2.685547,0.671387,-0.732422,8.349609,12.597656,7.617188
1117027378,-0.043701,-0.097168,1.002930,2.716064,0.518799,-0.762939,8.203125,13.037109,7.470703
1120041534,-0.046387,-0.098145,0.998291,2.746582,0.671387,-0.732422,8.203125,13.037109,7.470703
1123017947,-0.045898,-0.099365,0.998047,2.502441,0.244141,-0.854492,8.203125,13.037109,7.470703
1125573436,-0.040771,-0.099854,1.000000,2.410889,0.640869,-0.701904,8.203125,13.037109,7.470703
1128539182,-0.043457,-0.100586,0.998535,2.441406,0.518799,-1.068115,7.983398,12.817383,7.104492
1131036825,-0.048584,-0.102295,1.000488,2.807617,0.732422,-0.762939,7.983398,12.817383,7.104492
1134101853,-0.046875,-0.102051,0.990967,2.746582,0.335693,-0.671387,7.983398,12.817383,7.104492
1137035189,-0.047363,-0.105713,0.998047,2.349854,0.610352,-0.640869,8.056641,13.476563,7.470703
1139549242,-0.044434,-0.102539,0.992920,2.777100,0.305176,-0.762939,8.056641,13.476563,7.470703
1142038680,-0.041016,-0.102783,0.999756,2.655029,0.213623,-0.640869,8.056641,13.476563,7.470703
1145072119,-0.043701,-0.107178,0.993408,2.716064,0.457764,-0.946045,8.056641,13.476563,7.470703
1147606685,-0.041748,-0.103516,0.993408,2.960205,0.549316,-1.220703,8.349609,12.744141,7.177734
1150384123,-0.040039,-0.102051,0.994385,2.777100,0.518799,-0.854492,8.349609,12.744141,7.177734
1153406074,-0.044189,-0.101074,0.999268,3.051758,0.549316,-0.854492,8.349609,12.744141,7.177734
1155917666,-0.041992,-0.102539,0.993164,2.777100,0.701904,-0.946045,8.349609,12.744141,7.177734
1158479719,-0.044434,-0.097900,0.989990,3.082275,0.396729,-0.854492,8.349609,12.744141,7.177734
1161431106,-0.039307,-0.098145,1.004639,2.746582,0.671387,-0.823975,8.349609,12.744141,7.177734
1163926288,-0.044678,-0.100830,0.994873,2.868652,0.457764,-0.671387,8.349609,12.744141,7.177734
1166376341,-0.043457,-0.097900,0.988037,2.746582,0.732422,-0.915527,8.276367,13.256836,7.690430
1168926087,-0.043701,-0.099365,0.993164,2.807617,0.640869,-0.885010,8.276367,13.256836,7.690430
1171896346,-0.045654,-0.099854,0.999756,2.624512,0.640869,-0.854492,8.276367,13.256836,7.690430
1174442399,-0.044922,-0.098877,0.997070,2.593994,0.457764,-0.915527,8.276367,13.256836,7.690430
1177472555,-0.043213,-0.099609,0.990967,2.471924,0.701904,-0.823975,8.276367,13.256836,7.690430
1179978404,-0.043457,-0.103516,0.992676,2.502441,0.549316,-0.823975,8.276367,13.256836,7.690430
1182482611,-0.042480,-0.103516,0.997070,2.593994,0.366211,-0.915527,8.276367,13.256836,7.690430
1184981895,-0.041504,-0.106934,0.991455,2.624512,0.762939,-1.098633,8.276367,13.256836,7.690430
1187493897,-0.043701,-0.101563,0.997559,2.807617,0.396729,-0.793457,7.983398,13.110352,7.397461
1190243438,-0.042480,-0.100098,0.995361,2.593994,0.549316,-0.823975,7.983398,13.110352,7.397461
1192858414,-0.047363,-0.101807,0.994873,2.807617,0.610352,-0.762939,7.983398,13.110352,7.397461
1195946417,-0.043701,-0.103027,0.994873,2.685547,0.518799,-0.915527,7.983398,13.110352,7.397461
1198537598,-0.045410,-0.106689,0.994385,2.349854,0.579834,-0.579834,7.983398,13.110352,7.397461
1201301498,-0.041504,-0.100830,0.996582,2.655029,0.549316,-0.915527,7.983398,13.110352,7.397461
1203945603,-0.041016,-0.100342,0.999268,2.807617,0.579834,-0.823975,7.983398,13.110352,7.397461
1206448989,-0.047852,-0.101807,0.995117,2.532959,0.518799,-0.701904,8.715820,13.110352,7.836914
1209272787,-0.044678,-0.099854,0.995850,2.685547,0.732422,-0.854492,8.715820,13.110352,7.836914
1211779045,-0.044678,-0.103027,1.000000,2.593994,0.396729,-0.976563,8.715820,13.110352,7.836914
1214333304,-0.044922,-0.101807,0.998779,2.777100,0.518799,-0.671387,8.715820,13.110352,7.836914
1216827254,-0.040283,-0.099609,0.994385,2.716064,0.457764,-0.823975,8.715820,13.110352,7.836914
1219325308,-0.037598,-0.099854,0.993408,2.380371,0.610352,-0.885010,8.715820,13.110352,7.836914
1221885310,-0.045654,-0.103516,0.999756,2.532959,0.518799,-0.732422,8.715820,13.110352,7.836914
1224407158,-0.041504,-0.103027,0.992432,2.746582,0.640869,-0.915527,8.715820,13.110352,7.836914
1226917519,-0.043457,-0.101807,0.994629,2.502441,0.274658,-1.190186,7.617188,13.476563,7.470703
1229419265,-0.043457,-0.100586,1.005127,2.441406,0.762939,-0.976563,7.617188,13.476563,7.470703
1231918139,-0.043945,-0.100342,0.992920,2.716064,0.885010,-0.885010,7.617188,13.476563,7.470703
1234419064,-0.041260,-0.104004,0.997070,2.380371,0.701904,-0.976563,7.617188,13.476563,7.470703
1237367989,-0.045410,-0.102539,0.997559,2.655029,0.823975,-0.762939,7.617188,13.476563,7.470703
1240242248,-0.039795,-0.100098,0.995605,2.380371,0.701904,-1.037598,7.617188,13.476563,7.470703
1243154661,-0.042969,-0.101318,0.993164,2.807617,0.701904,-1.007080,7.617188,13.476563,7.470703
1245675278,-0.046143,-0.104492,0.992920,2.716064,0.610352,-0.885010,8.203125,13.037109,6.884766
1248709127,-0.045654,-0.101074,0.999756,2.593994,0.457764,-0.701904,8.203125,13.037109,6.884766
1251653539,-0.045410,-0.105225,0.997070,2.593994,0.518799,-0.793457,8.203125,13.037109,6.884766
1254156105,-0.042480,-0.105713,0.996582,2.655029,0.518799,-0.701904,8.203125,13.037109,6.884766
1256653749,-0.042725,-0.099609,1.001221,2.532959,0.701904,-0.823975,8.203125,13.037109,6.884766
1259665854,-0.044678,-0.099121,0.991943,2.258301,0.610352,-0.976563,8.203125,13.037109,6.884766
1262195497,-0.042480,-0.103271,0.993164,2.746582,0.579834,-1.007080,8.203125,13.037109,6.884766
1265164115,-0.046387,-0.103271,0.990967,2.655029,0.488281,-0.823975,8.203125,13.037109,6.884766
1267761040,-0.041748,-0.100098,0.996826,2.380371,0.610352,-0.976563,8.056641,13.476563,6.884766
1270866683,-0.043701,-0.101563,1.000244,2.532959,0.732422,-0.915527,8.056641,13.476563,6.884766
1273365147,-0.045166,-0.100098,0.988525,2.410889,0.610352,-0.762939,8.056641,13.476563,6.884766
1275925559,-0.040771,-0.101074,0.993652,2.471924,0.701904,-0.885010,8.056641,13.476563,6.884766
1278877767,-0.038330,-0.100098,0.996338,2.532959,0.457764,-0.823975,8.056641,13.476563,6.884766
1281443512,-0.041260,-0.099609,0.988770,2.258301,0.762939,-0.976563,8.056641,13.476563,6.884766
1284389566,-0.043945,-0.102539,0.991211,2.471924,0.549316,-0.671387,8.056641,13.476563,6.884766
1286874081,-0.041504,-0.097656,0.997314,2.532959,0.701904,-0.762939,8.129883,13.110352,7.250977
1289414801,-0.045654,-0.102783,0.996826,2.746582,0.366211,-1.007080,8.129883,13.110352,7.250977
1291946085,-0.043701,-0.103760,0.986328,2.288818,0.396729,-1.007080,8.129883,13.110352,7.250977
1294451523,-0.045166,-0.105225,0.995361,2.777100,0.640869,-0.915527,8.129883,13.110352,7.250977
1297396346,-0.042480,-0.101074,1.001465,2.441406,0.762939,-0.640869,8.422852,13.110352,7.397461
1299888246,-0.041504,-0.099365,0.994141,2.380371,0.488281,-0.732422,8.422852,13.110352,7.397461
1302448658,-0.038818,-0.103760,1.004639,2.807617,0.579834,-1.068115,8.422852,13.110352,7.397461
1305409481,-0.043945,-0.102295,0.995361,2.502441,0.823975,-0.762939,8.203125,12.890625,6.884766
1308385483,-0.040039,-0.103760,0.998779,2.777100,0.579834,-1.007080,8.203125,12.890625,6.884766
1311437383,-0.042236,-0.103271,0.995605,2.777100,0.549316,-0.854492,8.203125,12.890625,6.884766
1314403540,-0.043701,-0.103760,0.993164,2.838135,0.579834,-0.732422,8.203125,12.890625,6.884766
1316907747,-0.043945,-0.097412,1.000732,2.868652,0.518799,-0.854492,8.056641,13.623047,7.324219
1319739749,-0.041260,-0.097900,0.995117,2.532959,0.701904,-0.915527,8.056641,13.623047,7.324219
1322738726,-0.041504,-0.104980,0.994629,2.685547,0.488281,-0.762939,8.056641,13.623047,7.324219
1325400882,-0.040771,-0.100830,0.996826,2.471924,0.579834,-1.068115,8.129883,13.110352,7.397461
1327870217,-0.047363,-0.102051,0.989258,2.899170,0.762939,-0.701904,8.129883,13.110352,7.397461
1330368681,-0.043457,-0.100830,0.995605,2.471924,0.549316,-0.946045,8.129883,13.110352,7.397461
1333322940,-0.045654,-0.101563,0.997559,2.624512,0.640869,-0.823975,8.129883,13.110352,7.397461
1335930121,-0.045654,-0.100342,0.997559,2.502441,0.640869,-0.823975,8.056641,12.890625,8.056641
1338873303,-0.045166,-0.100830,1.001465,2.380371,0.518799,-0.762939,8.056641,12.890625,8.056641
1341411151,-0.039063,-0.104248,0.995361,2.532959,0.488281,-0.732422,8.056641,12.890625,8.056641
1343972795,-0.046143,-0.098389,0.997070,2.410889,0.427246,-0.701904,8.056641,12.890625,8.056641
1346960694,-0.042969,-0.100830,0.996338,2.807617,0.549316,-0.701904,8.203125,12.744141,7.470703
1349960492,-0.043213,-0.102051,0.996826,2.319336,0.610352,-1.068115,8.203125,12.744141,7.470703
1352493417,-0.044189,-0.099854,0.998535,2.563477,0.671387,-0.915527,8.203125,12.744141,7.470703
1354991060,-0.043945,-0.103760,0.994141,2.441406,0.396729,-0.793457,7.983398,13.403320,7.250977
1357946139,-0.041992,-0.100342,0.997314,2.532959,0.610352,-1.007080,7.983398,13.403320,7.250977
1360478654,-0.044678,-0.102051,0.997559,2.685547,0.793457,-1.007080,7.983398,13.403320,7.250977
1362984913,-0.042236,-0.100586,0.994141,2.441406,0.427246,-0.976563,7.983398,13.403320,7.250977
1365534248,-0.041260,-0.102295,1.000488,2.532959,0.579834,-0.549316,7.983398,13.403320,7.250977
1368033943,-0.043945,-0.100342,0.995850,2.593994,0.610352,-0.885010,7.983398,13.403320,7.250977
1370735483,-0.042480,-0.104248,0.989258,2.593994,0.427246,-0.671387,7.983398,13.403320,7.250977
1373741024,-0.042725,-0.103271,1.001953,2.410889,0.701904,-0.885010,7.983398,13.403320,7.250977
1376207488,-0.040771,-0.100586,0.995605,2.563477,0.427246,-0.732422,7.910156,12.304688,7.470703
1378761746,-0.048828,-0.099609,0.998779,2.655029,0.610352,-0.885010,7.910156,12.304688,7.470703
1381516210,-0.045654,-0.102539,0.996094,2.655029,0.671387,-0.976563,7.910156,12.304688,7.470703
1384213238,-0.044922,-0.102539,1.002441,2.716064,0.488281,-0.671387,7.910156,12.304688,7.470703
1386760112,-0.039307,-0.098877,0.993896,2.532959,0.640869,-0.823975,7.910156,12.304688,7.470703
1389238062,-0.044189,-0.104004,0.994873,2.593994,0.640869,-0.793457,7.910156,12.304688,7.470703
1391727090,-0.044434,-0.102051,0.998779,2.532959,0.549316,-0.762939,7.910156,12.304688,7.470703
1394232528,-0.042480,-0.100586,0.994629,2.319336,0.732422,-0.885010,7.910156,12.304688,7.470703
1397006274,-0.044189,-0.098877,0.994385,2.716064,0.518799,-0.762939,8.056641,12.890625,7.324219
1399794379,-0.044189,-0.103271,0.996582,2.624512,0.549316,-0.946045,8.056641,12.890625,7.324219
1402357663,-0.042969,-0.105225,0.996094,2.716064,0.488281,-0.976563,8.056641,12.890625,7.324219
1405251204,-0.042480,-0.100342,0.995850,2.655029,0.579834,-0.701904,8.056641,12.890625,7.324219
1407755821,-0.048340,-0.101563,0.994385,2.807617,0.579834,-0.854492,8.056641,12.890625,7.324219
1410293669,-0.045410,-0.103516,0.995850,2.624512,0.457764,-0.976563,8.056641,12.890625,7.324219
1412938595,-0.044434,-0.099121,1.001953,2.532959,0.640869,-0.946045,8.056641,12.890625,7.324219
1415791930,-0.044922,-0.101318,0.999512,2.410889,0.640869,-0.823975,8.129883,12.670898,7.250977
1418280138,-0.047607,-0.103760,0.994873,2.868652,0.885010,-0.915527,8.129883,12.670898,7.250977
1420797063,-0.042725,-0.101318,0.992188,2.502441,0.457764,-0.854492,8.129883,12.670898,7.250977
1423795629,-0.042725,-0.104492,0.998291,2.593994,0.427246,-0.640869,8.129883,12.670898,7.250977
1426313785,-0.046387,-0.098145,0.995605,2.593994,0.579834,-0.915527,8.129883,12.670898,7.250977
1428813890,-0.041016,-0.099609,0.998779,2.899170,0.518799,-0.885010,8.129883,12.670898,7.250977
1431818200,-0.042725,-0.103760,0.996094,2.532959,0.854492,-1.037598,8.129883,12.670898,7.250977
1434756869,-0.042236,-0.103027,0.996094,3.082275,0.579834,-0.823975,8.129883,12.670898,7.250977
1437206102,-0.043457,-0.103027,0.998779,2.563477,0.732422,-0.915527,8.276367,12.377930,7.104492
1439757078,-0.042969,-0.099609,0.996582,2.929688,0.488281,-0.793457,8.276367,12.377930,7.104492
1442772465,-0.048340,-0.101563,0.997314,2.716064,0.762939,-0.976563,8.276367,12.377930,7.104492
1445521596,-0.043945,-0.102539,0.993896,2.929688,0.579834,-0.732422,8.276367,12.377930,7.104492
1448020059,-0.040527,-0.102539,0.996826,2.746582,0.518799,-0.640869,8.276367,12.377930,7.104492
1450520164,-0.044922,-0.102539,0.996826,2.838135,0.488281,-0.793457,8.276367,12.377930,7.104492
1453049397,-0.042725,-0.100098,0.998535,2.807617,0.640869,-0.976563,8.276367,12.377930,7.104492
1455953194,-0.042969,-0.102295,0.994629,2.593994,0.610352,-0.793457,7.836914,12.963867,7.104492
1458811453,-0.043945,-0.097900,0.998291,2.716064,0.823975,-0.518799,7.836914,12.963867,7.104492
1461801404,-0.040527,-0.101563,0.992920,2.624512,0.793457,-1.007080,7.836914,12.963867,7.104492
1464465201,-0.043457,-0.104492,0.996826,2.288818,0.396729,-0.762939,7.836914,12.963867,7.104492
1466952588,-0.043701,-0.104248,1.000977,2.899170,0.762939,-0.854492,7.836914,12.963867,7.104492
1469451872,-0.044678,-0.102783,0.993896,2.563477,0.701904,-0.885010,7.836914,12.963867,7.104492
1471961823,-0.046875,-0.102051,1.000244,2.685547,0.335693,-0.823975,7.836914,12.963867,7.104492
1474790133,-0.044189,-0.106445,1.001465,2.563477,0.366211,-0.854492,7.910156,12.890625,7.617188
1477793622,-0.046875,-0.101074,0.993408,2.838135,0.244141,-0.885010,7.910156,12.890625,7.617188
1480300701,-0.039551,-0.105469,0.995361,2.563477,0.671387,-0.946045,7.910156,12.890625,7.617188
1482867678,-0.042725,-0.103271,0.999756,2.685547,0.671387,-0.823975,7.910156,12.890625,7.617188
1485814552,-0.042480,-0.102539,0.998535,2.227783,0.305176,-0.640869,7.910156,12.890625,7.617188
1488311785,-0.042236,-0.100342,0.998047,2.838135,0.610352,-0.762939,7.910156,12.890625,7.617188
1490835684,-0.041260,-0.102539,0.995117,2.502441,0.427246,-0.457764,7.910156,12.890625,7.617188
1493829738,-0.042236,-0.099121,0.991943,2.624512,0.549316,-1.007080,7.910156,12.890625,7.617188
1496525125,-0.040771,-0.102295,0.989258,2.624512,0.457764,-0.976563,7.763672,12.597656,7.324219
1499026050,-0.044922,-0.101563,0.993896,2.655029,0.488281,-0.793457,7.763672,12.597656,7.324219
1501532719,-0.042969,-0.098633,0.995605,2.349854,0.427246,-0.976563,7.763672,12.597656,7.324219
1504034464,-0.041016,-0.100586,0.995850,2.838135,0.396729,-0.854492,7.763672,12.597656,7.324219
1506838979,-0.043701,-0.102295,0.999756,2.685547,0.549316,-0.976563,8.203125,13.037109,7.031250
1509386674,-0.042725,-0.100830,0.995361,2.868652,0.976563,-0.885010,8.203125,13.037109,7.031250
1512882472,-0.044678,-0.100342,0.996582,2.777100,0.579834,-1.037598,8.203125,13.037109,7.031250
1515873654,-0.039307,-0.103760,1.000732,2.288818,0.610352,-0.915527,7.836914,12.817383,7.397461
1518374579,-0.043701,-0.101318,1.003662,2.868652,0.549316,-0.885010,7.836914,12.817383,7.397461
1521003094,-0.043457,-0.100830,0.993652,2.777100,0.610352,-1.007080,7.836914,12.817383,7.397461
1523688634,-0.040283,-0.102539,1.003662,2.716064,0.427246,-0.823975,7.836914,12.817383,7.397461
1526384842,-0.046875,-0.102295,0.996338,2.532959,0.549316,-0.915527,8.276367,13.110352,7.250977
1528823818,-0.044189,-0.099609,1.001709,2.716064,0.732422,-1.007080,8.276367,13.110352,7.250977
1531880641,-0.044678,-0.099365,0.994141,2.807617,0.701904,-0.823975,8.276367,13.110352,7.250977
1534689259,-0.042480,-0.102539,0.996338,2.777100,0.488281,-0.762939,7.983398,12.963867,7.104492
1537247620,-0.043457,-0.103516,1.000000,2.746582,0.549316,-0.671387,7.983398,12.963867,7.104492
1540249468,-0.045410,-0.101318,0.997559,2.807617,0.793457,-0.915527,7.983398,12.963867,7.104492
1542799624,-0.044678,-0.101074,0.990967,2.655029,0.549316,-0.762939,7.983398,12.963867,7.104492
1545406396,-0.045410,-0.100586,0.992676,2.838135,0.427246,-0.793457,8.569336,12.963867,7.836914
1547906500,-0.045410,-0.103027,0.996582,2.655029,0.457764,-0.946045,8.569336,12.963867,7.836914
1550565374,-0.041016,-0.098389,0.995361,2.807617,0.671387,-0.671387,8.569336,12.963867,7.836914
1553560659,-0.043457,-0.103271,0.992920,2.410889,0.457764,-0.915527,8.569336,12.963867,7.836914
1556008251,-0.043213,-0.099121,0.997803,2.593994,0.793457,-0.915527,8.056641,13.183594,6.738281
1558522714,-0.043701,-0.098633,0.989258,2.655029,0.671387,-0.854492,8.056641,13.183594,6.738281
1561104050,-0.043945,-0.103760,0.988037,2.716064,0.579834,-0.885010,8.056641,13.183594,6.738281
1563874513,-0.041016,-0.100342,0.999023,2.655029,0.549316,-0.915527,8.056641,13.183594,6.738281
1566584259,-0.039795,-0.102295,1.001221,2.685547,0.549316,-0.732422,8.203125,13.183594,6.591797
1569074928,-0.042969,-0.103027,0.994141,2.777100,0.396729,-0.976563,8.203125,13.183594,6.591797
1571627135,-0.042480,-0.100586,0.997559,2.349854,0.762939,-0.732422,8.203125,13.183594,6.591797
1574389804,-0.042969,-0.102295,0.989258,2.777100,0.549316,-0.854492,8.203125,13.183594,6.591797
1576910832,-0.047607,-0.101318,0.998535,2.807617,0.671387,-1.068115,8.203125,13.183594,6.591797
1579410526,-0.043213,-0.104980,0.984619,2.502441,0.854492,-0.671387,8.203125,13.183594,6.591797
1581921297,-0.044678,-0.100098,0.992920,2.716064,0.488281,-0.762939,8.203125,13.183594,6.591797
1584424274,-0.043457,-0.099365,0.998047,2.655029,0.671387,-0.488281,7.836914,13.256836,6.958008
1586925609,-0.042480,-0.104492,0.993652,2.532959,0.640869,-0.701904,7.836914,13.256836,6.958008
1589584483,-0.045654,-0.099121,0.997559,2.624512,0.610352,-0.976563,7.836914,13.256836,6.958008
1592612999,-0.045654,-0.101074,0.998291,2.807617,0.610352,-1.007080,7.836914,13.256836,6.958008
1595401924,-0.044678,-0.103027,0.995361,2.716064,0.671387,-1.007080,7.836914,13.256836,6.958008
1597950029,-0.044678,-0.104248,0.997559,2.685547,0.274658,-0.701904,7.836914,13.256836,6.958008
1600562954,-0.046387,-0.102051,0.994385,2.838135,0.701904,-0.732422,7.836914,13.256836,6.958008
1603573828,-0.044434,-0.103760,1.000977,2.410889,0.793457,-0.854492,7.836914,13.256836,6.958008
1606325830,-0.043701,-0.103027,0.990967,2.868652,0.610352,-0.610352,7.910156,13.037109,7.031250
1608827986,-0.039551,-0.099365,0.996826,2.777100,0.640869,-0.946045,7.910156,13.037109,7.031250
1611329322,-0.041992,-0.104004,0.995605,2.716064,0.518799,-0.762939,7.910156,13.037109,7.031250
1614329529,-0.041748,-0.101563,0.993408,2.532959,0.610352,-0.579834,7.910156,13.037109,7.031250
1616875583,-0.043701,-0.101318,0.995117,2.716064,0.732422,-0.610352,7.910156,13.037109,7.031250
1619889329,-0.042969,-0.100586,0.998047,2.563477,0.244141,-0.915527,7.910156,13.037109,7.031250
1622560100,-0.047607,-0.099609,0.993896,2.624512,0.793457,-0.732422,7.910156,13.037109,7.031250
1625360923,-0.045166,-0.100830,0.993896,2.716064,0.396729,-0.946045,7.763672,13.037109,7.031250
1628228618,-0.042236,-0.099121,0.992676,2.471924,0.915527,-0.701904,7.763672,13.037109,7.031250
1630887902,-0.041260,-0.106201,0.989502,2.685547,0.610352,-1.007080,7.763672,13.037109,7.031250
1633791289,-0.041016,-0.105957,0.993652,2.624512,0.549316,-0.885010,7.763672,13.037109,7.031250
1636741445,-0.042480,-0.102295,1.003174,2.929688,0.640869,-0.732422,7.763672,13.037109,7.031250
1639206268,-0.040771,-0.100586,0.999268,2.624512,0.854492,-0.823975,7.763672,13.037109,7.031250
1642292219,-0.042725,-0.100830,0.999023,2.655029,0.549316,-0.885010,7.763672,13.037109,7.031250
1645246478,-0.039795,-0.107666,1.000977,2.746582,0.640869,-0.946045,8.349609,13.037109,7.910156
1647742069,-0.044678,-0.103271,0.998047,2.655029,0.335693,-0.579834,8.349609,13.037109,7.910156
1650253251,-0.042969,-0.100586,0.991211,2.685547,0.671387,-1.037598,8.349609,13.037109,7.910156
1652742279,-0.042236,-0.101074,1.001709,2.563477,0.793457,-0.915527,8.349609,13.037109,7.910156
1655543101,-0.042969,-0.100586,0.989746,2.593994,0.549316,-0.823975,8.349609,13.037109,7.910156
1658042796,-0.044434,-0.101563,0.994873,2.532959,0.549316,-0.793457,8.349609,13.037109,7.910156
1660557259,-0.043701,-0.103760,0.995361,2.655029,0.518799,-0.701904,8.349609,13.037109,7.910156
1663153364,-0.042969,-0.106445,0.996582,2.258301,0.610352,-0.732422,8.349609,13.037109,7.910156
1665653058,-0.043945,-0.100586,1.000000,2.685547,0.640869,-0.549316,8.056641,13.183594,6.884766
1668704958,-0.042725,-0.102051,0.996338,2.380371,0.579834,-1.068115,8.056641,13.183594,6.884766
1671212858,-0.041260,-0.103027,0.996582,2.624512,0.610352,-0.793457,8.056641,13.183594,6.884766
1674061681,-0.043945,-0.104248,0.997314,2.441406,0.885010,-0.793457,8.056641,13.183594,6.884766
1676662709,-0.043457,-0.100342,0.991943,2.777100,0.549316,-0.579834,8.056641,13.183594,6.884766
1679705993,-0.041016,-0.105713,0.996338,2.746582,0.457764,-1.037598,8.056641,13.183594,6.884766
1682562201,-0.044678,-0.103760,0.991943,2.593994,0.305176,-0.671387,8.056641,13.183594,6.884766
1685110305,-0.042236,-0.097412,0.990479,2.624512,0.701904,-0.915527,8.349609,12.890625,7.470703
1688089590,-0.040771,-0.103516,0.999756,2.593994,0.518799,-0.823975,8.349609,12.890625,7.470703
1690768566,-0.040771,-0.103271,1.000977,2.655029,0.610352,-0.854492,8.349609,12.890625,7.470703
1693759748,-0.044189,-0.100586,0.997070,2.716064,0.366211,-0.732422,8.349609,12.890625,7.470703
1696743135,-0.040283,-0.099609,0.996338,2.868652,0.671387,-0.854492,8.349609,12.890625,7.470703
1699593599,-0.041992,-0.100586,0.999756,2.746582,0.610352,-0.885010,8.349609,12.890625,7.470703
1702095755,-0.041992,-0.105469,1.002930,2.624512,0.732422,-0.640869,8.349609,12.890625,7.470703
1704596270,-0.044922,-0.106201,0.998779,2.563477,0.762939,-0.854492,7.470703,12.744141,6.884766
1707245298,-0.040771,-0.103760,0.996582,2.777100,0.488281,-1.037598,7.470703,12.744141,6.884766
1709911146,-0.041992,-0.104492,0.995117,2.502441,0.579834,-0.854492,7.470703,12.744141,6.884766
1712448174,-0.043701,-0.100586,0.994629,2.746582,0.549316,-1.129150,7.470703,12.744141,6.884766
1715404894,-0.042480,-0.100342,0.993408,2.746582,0.366211,-0.732422,7.470703,12.744141,6.884766
1717938230,-0.043945,-0.102783,0.993408,2.716064,0.610352,-0.823975,7.470703,12.744141,6.884766
1720910540,-0.043701,-0.099365,0.999756,2.807617,0.579834,-0.854492,7.470703,12.744141,6.884766
1723944799,-0.042725,-0.101074,0.994629,2.716064,0.762939,-0.579834,8.129883,12.963867,7.397461
1726922852,-0.041016,-0.104004,0.995605,2.746582,0.549316,-0.762939,8.129883,12.963867,7.397461
1729879573,-0.042236,-0.099121,1.000977,2.685547,0.701904,-0.671387,8.129883,12.963867,7.397461
1732356293,-0.041748,-0.097168,0.995605,2.349854,0.488281,-1.068115,8.129883,12.963867,7.397461
1734899064,-0.046631,-0.103516,0.990234,2.441406,0.549316,-0.793457,8.056641,13.330078,7.177734
1737398348,-0.042725,-0.103027,0.992920,2.685547,0.396729,-0.885010,8.056641,13.330078,7.177734
1739914863,-0.044434,-0.100098,0.997803,2.716064,0.579834,-1.007080,8.056641,13.330078,7.177734
1742417429,-0.042725,-0.104492,0.995605,2.502441,0.518799,-0.823975,8.056641,13.330078,7.177734
1745418047,-0.045898,-0.103516,0.999023,2.716064,0.762939,-0.823975,8.056641,13.183594,7.617188
1748214767,-0.042969,-0.101563,1.000000,2.563477,0.549316,-0.885010,8.056641,13.183594,7.617188
1750779282,-0.042236,-0.099365,0.996094,2.502441,0.488281,-0.854492,8.056641,13.183594,7.617188
1753292105,-0.042969,-0.100586,0.995117,2.655029,0.488281,-0.885010,7.983398,13.256836,7.836914
1755940312,-0.043701,-0.102783,0.995361,2.563477,0.457764,-0.823975,7.983398,13.256836,7.836914
1758464212,-0.041748,-0.104004,0.998291,2.746582,0.793457,-0.793457,7.983398,13.256836,7.836914
1761194060,-0.042969,-0.099365,0.997070,2.471924,0.457764,-0.976563,7.983398,13.256836,7.836914
1764263191,-0.042969,-0.098389,0.996826,2.532959,0.701904,-1.007080,8.496094,14.062500,7.177734
1767116116,-0.042480,-0.102295,0.997559,2.655029,0.549316,-0.854492,8.496094,14.062500,7.177734
1769567810,-0.041748,-0.101074,0.996826,2.349854,0.793457,-0.793457,8.496094,14.062500,7.177734
1772618069,-0.044189,-0.100342,0.999023,2.624512,0.457764,-0.823975,8.496094,14.062500,7.177734
1775275302,-0.044189,-0.102051,0.993164,2.502441,0.671387,-0.762939,7.690430,12.963867,6.958008
1778249664,-0.042725,-0.103760,0.993652,2.655029,0.457764,-0.701904,7.690430,12.963867,6.958008
1781011922,-0.041504,-0.097900,0.991455,2.685547,0.427246,-1.037598,7.690430,12.963867,6.958008
1783545258,-0.039063,-0.102783,1.000977,2.593994,0.915527,-0.885010,7.690430,12.963867,6.958008
1786101978,-0.044434,-0.102295,1.000244,2.593994,0.640869,-0.732422,7.690430,12.963867,6.958008
1789052544,-0.045410,-0.100342,0.999512,2.136230,0.488281,-0.915527,7.690430,12.963867,6.958008
1791605572,-0.039307,-0.101074,0.994141,2.746582,0.457764,-0.915527,7.690430,12.963867,6.958008
1794355523,-0.044922,-0.104492,0.999023,2.746582,0.518799,-0.885010,9.008789,12.670898,7.690430
1796854397,-0.043701,-0.106934,0.996094,2.441406,0.640869,-0.854492,9.008789,12.670898,7.690430
1799360245,-0.044922,-0.101318,0.990479,2.563477,0.549316,-0.854492,9.008789,12.670898,7.690430
1802233683,-0.041748,-0.103516,0.993408,2.441406,0.610352,-0.671387,9.008789,12.670898,7.690430
1805195327,-0.042725,-0.103027,1.000977,2.563477,0.488281,-0.793457,9.008789,12.670898,7.690430
1807752867,-0.044678,-0.100830,1.000977,2.563477,0.518799,-0.823975,9.008789,12.670898,7.690430
1810304254,-0.042236,-0.104248,0.991943,2.777100,0.640869,-0.610352,9.008789,12.670898,7.690430
1813284359,-0.041748,-0.101807,1.001465,2.624512,0.610352,-1.007080,8.496094,12.890625,7.763672
1815777079,-0.045898,-0.100098,0.989502,2.563477,0.457764,-0.946045,8.496094,12.890625,7.763672
1818745697,-0.045166,-0.095947,0.994629,2.624512,0.518799,-0.793457,8.496094,12.890625,7.763672
1821290520,-0.042480,-0.100342,1.001709,2.655029,0.610352,-0.915527,8.496094,12.890625,7.763672
1824309599,-0.045898,-0.103027,1.002686,2.593994,0.762939,-0.793457,8.496094,12.890625,7.763672
1827299140,-0.041504,-0.097900,1.002441,2.655029,0.610352,-0.732422,8.496094,12.890625,7.763672
1830259553,-0.044189,-0.102051,0.997070,2.716064,0.610352,-0.854492,8.496094,12.890625,7.763672
1832759657,-0.042969,-0.102051,0.995850,2.502441,0.640869,-0.854492,7.836914,12.817383,7.250977
1835559249,-0.041748,-0.102051,0.995361,2.777100,0.701904,-0.976563,7.836914,12.817383,7.250977
1838257508,-0.043945,-0.100830,0.997559,2.655029,0.671387,-0.915527,7.836914,12.817383,7.250977
1841133818,-0.043945,-0.099609,0.999512,2.777100,0.335693,-0.823975,7.836914,12.817383,7.250977
1844102436,-0.042969,-0.099365,1.001465,2.624512,0.701904,-0.946045,7.836914,12.817383,7.250977
1846863874,-0.043213,-0.099609,0.989746,2.777100,0.640869,-0.762939,7.836914,12.817383,7.250977
1849300389,-0.041748,-0.103516,0.994629,2.716064,0.427246,-0.976563,7.836914,12.817383,7.250977
1851886237,-0.044678,-0.102051,0.998047,2.655029,0.610352,-0.915527,7.836914,12.817383,7.250977
1854854034,-0.042969,-0.104492,1.000732,2.471924,0.793457,-1.037598,8.203125,13.183594,6.884766
1857368498,-0.041504,-0.100586,0.990479,2.502441,0.732422,-0.946045,8.203125,13.183594,6.884766
1860374859,-0.043213,-0.100342,0.995361,2.685547,0.457764,-0.915527,8.203125,13.183594,6.884766
1862875374,-0.040283,-0.104736,0.995850,2.655029,0.732422,-0.854492,8.203125,13.183594,6.884766
1865366043,-0.044189,-0.099121,0.998291,2.746582,0.762939,-0.823975,8.203125,13.183594,6.884766
1867879276,-0.044678,-0.103027,0.996582,2.410889,0.366211,-1.007080,8.203125,13.183594,6.884766
1870393739,-0.041992,-0.101074,0.999756,2.624512,0.579834,-0.946045,8.203125,13.183594,6.884766
1873393947,-0.041748,-0.099121,0.997803,2.441406,0.396729,-0.610352,8.349609,12.890625,7.910156
1876410155,-0.041748,-0.099609,0.998779,2.716064,0.701904,-0.732422,8.349609,12.890625,7.910156
1878908618,-0.043213,-0.103027,0.993896,2.624512,0.518799,-0.946045,8.349609,12.890625,7.910156
1881559287,-0.042236,-0.104248,0.998779,2.563477,0.732422,-0.946045,8.349609,12.890625,7.910156
1884362982,-0.041992,-0.101074,0.997314,2.410889,0.305176,-0.885010,8.349609,12.890625,7.910156
1886861445,-0.044922,-0.104492,0.997803,2.746582,0.640869,-0.885010,8.349609,12.890625,7.910156
1889417345,-0.042236,-0.102539,0.995361,2.716064,0.488281,-0.915527,8.349609,12.890625,7.910156
1891945347,-0.043701,-0.100098,0.997803,2.655029,0.793457,-1.007080,8.349609,12.890625,7.910156
1894888939,-0.040039,-0.106934,0.998779,2.410889,0.305176,-0.732422,7.910156,12.744141,7.470703
1897484633,-0.042480,-0.103271,0.994873,2.899170,0.579834,-0.701904,7.910156,12.744141,7.470703
1899983097,-0.039063,-0.099854,0.994141,2.410889,0.549316,-0.793457,7.910156,12.744141,7.470703
1902490586,-0.045898,-0.104248,1.000977,2.655029,0.396729,-0.823975,7.910156,12.744141,7.470703
1904986998,-0.043457,-0.104492,0.995361,2.777100,0.701904,-0.823975,7.910156,12.744141,7.470703
1907951103,-0.044434,-0.106445,0.987793,2.349854,0.854492,-0.915527,7.910156,12.744141,7.470703
1910918080,-0.041748,-0.101807,0.998535,2.502441,0.640869,-0.823975,7.910156,12.744141,7.470703
1913436646,-0.041016,-0.102539,0.993652,2.655029,0.396729,-0.762939,8.129883,12.963867,7.104492
1915930597,-0.041748,-0.099121,0.996094,2.807617,0.640869,-0.854492,8.129883,12.963867,7.104492
1918431522,-0.042969,-0.104736,0.996338,2.593994,0.610352,-1.129150,8.129883,12.963867,7.104492
1920933268,-0.043701,-0.098389,1.003662,2.746582,0.885010,-0.610352,8.129883,12.963867,7.104492
1923983117,-0.041504,-0.101563,1.003174,2.349854,0.671387,-1.159668,8.129883,12.963867,7.104492
1926936965,-0.041748,-0.104736,0.998535,2.807617,0.488281,-0.732422,8.129883,12.963867,7.104492
1929492454,-0.044922,-0.102783,1.000244,2.716064,0.640869,-0.762939,8.129883,12.963867,7.104492
1932495944,-0.043213,-0.104492,0.996582,2.593994,0.640869,-0.854492,8.129883,12.963867,7.104492
1935190921,-0.044189,-0.103027,0.998535,2.746582,0.457764,-0.823975,8.349609,13.037109,7.031250
1937696769,-0.044678,-0.098633,0.991943,2.624512,0.640869,-0.732422,8.349609,13.037109,7.031250
1940328566,-0.041504,-0.101563,0.995605,2.532959,0.335693,-0.671387,8.349609,13.037109,7.031250
1943298415,-0.041992,-0.102783,0.996826,2.777100,0.762939,-0.976563,8.203125,12.744141,7.617188
1946250212,-0.043701,-0.101074,0.994629,2.380371,0.457764,-0.976563,8.203125,12.744141,7.617188
1949197907,-0.040771,-0.102295,0.996582,2.532959,0.579834,-0.854492,8.203125,12.744141,7.617188
1951717293,-0.041504,-0.102539,0.993896,2.624512,0.671387,-1.190186,8.203125,12.744141,7.617188
1954217808,-0.045898,-0.100830,1.000488,2.593994,0.518799,-0.701904,8.129883,13.110352,6.958008
1956728990,-0.042480,-0.101074,1.002930,2.777100,0.671387,-0.823975,8.129883,13.110352,6.958008
1959765710,-0.042236,-0.101074,1.000977,3.021240,0.518799,-1.037598,8.129883,13.110352,6.958008
1962752789,-0.043213,-0.100586,0.991211,2.746582,0.366211,-0.762939,8.276367,13.110352,7.250977
1965253715,-0.043457,-0.098145,0.993652,2.624512,0.732422,-0.854492,8.276367,13.110352,7.250977
1967807973,-0.044678,-0.100342,0.997559,2.593994,0.579834,-0.732422,8.276367,13.110352,7.250977
1970329821,-0.041016,-0.101807,0.996094,2.777100,0.579834,-0.885010,8.276367,13.110352,7.250977
1973309106,-0.045166,-0.100586,1.002930,2.593994,0.579834,-0.946045,8.276367,13.110352,7.250977
1975814954,-0.043457,-0.100098,0.991211,2.593994,0.549316,-0.762939,8.276367,13.110352,7.250977
1978262546,-0.041260,-0.101807,0.993408,2.685547,0.640869,-0.732422,8.276367,13.110352,7.250977
1981161010,-0.045166,-0.102295,0.999268,2.838135,0.305176,-0.976563,8.276367,13.110352,7.250977
1983819884,-0.044434,-0.105957,0.994385,2.746582,0.640869,-0.762939,7.690430,12.963867,7.250977
1986710553,-0.046143,-0.101318,0.998291,2.471924,0.518799,-0.701904,7.690430,12.963867,7.250977
1989721427,-0.041992,-0.103760,0.994385,2.868652,0.549316,-1.037598,7.690430,12.963867,7.250977
1992297019,-0.044678,-0.102539,1.000244,2.960205,0.701904,-0.946045,7.690430,12.963867,7.250977
1994782354,-0.046143,-0.102295,1.000244,2.441406,0.579834,-0.885010,7.690430,12.963867,7.250977
1997581536,-0.046143,-0.101563,0.996094,2.410889,0.579834,-0.946045,7.690430,12.963867,7.250977
2000531282,-0.044922,-0.101318,0.996826,2.868652,0.579834,-0.732422,7.690430,12.963867,7.250977
2003034258,-0.042236,-0.103271,0.997803,2.655029,0.518799,-1.068115,8.203125,13.330078,7.031250
2005832620,-0.042236,-0.098877,0.998047,2.593994,0.762939,-0.793457,8.203125,13.330078,7.031250
2008780725,-0.043701,-0.102051,0.994873,2.563477,0.518799,-1.037598,8.203125,13.330078,7.031250
2011771496,-0.047363,-0.104248,0.994385,2.563477,0.671387,-0.885010,8.203125,13.330078,7.031250
2014283498,-0.041992,-0.100098,1.000732,2.685547,0.549316,-0.793457,8.203125,13.330078,7.031250
2016769654,-0.043701,-0.100830,0.991943,2.624512,0.488281,-0.885010,8.203125,13.330078,7.031250
2019732529,-0.042236,-0.102539,0.996582,2.838135,0.457764,-1.068115,8.203125,13.330078,7.031250
2022738069,-0.047119,-0.104004,0.990479,2.746582,0.640869,-0.885010,8.203125,12.890625,7.177734
2025258277,-0.040771,-0.100586,1.003418,2.685547,0.396729,-1.037598,8.203125,12.890625,7.177734
2028267100,-0.045654,-0.103271,1.000488,2.777100,0.518799,-0.885010,8.203125,12.890625,7.177734
2030987922,-0.042480,-0.104248,0.995605,3.021240,0.488281,-1.037598,8.203125,12.890625,7.177734
2033461771,-0.042480,-0.100342,0.991699,2.624512,0.762939,-0.854492,8.203125,12.890625,7.177734
2036023003,-0.039063,-0.100830,0.992188,2.624512,0.366211,-0.946045,8.203125,12.890625,7.177734
2038838185,-0.041016,-0.104004,0.996338,2.624512,0.549316,-0.823975,8.203125,12.890625,7.177734
2041388341,-0.042969,-0.100342,0.992432,2.441406,0.335693,-0.946045,8.203125,12.890625,7.177734
2044360651,-0.041992,-0.104980,1.000732,2.716064,0.671387,-0.915527,8.642578,12.304688,7.177734
2047354705,-0.043457,-0.098389,0.992676,2.838135,0.396729,-0.976563,8.642578,12.304688,7.177734
2050342605,-0.043701,-0.099854,0.990967,2.716064,0.640869,-0.793457,8.642578,12.304688,7.177734
2053071223,-0.041992,-0.098633,0.994385,2.807617,0.610352,-0.793457,8.642578,12.304688,7.177734
2056021789,-0.042725,-0.100830,1.003418,2.349854,0.671387,-0.976563,8.642578,12.304688,7.177734
2059028561,-0.044434,-0.105957,0.998779,2.807617,0.640869,-0.823975,8.642578,12.304688,7.177734
2062038204,-0.042236,-0.100586,0.998047,2.777100,0.579834,-0.946045,8.642578,12.304688,7.177734
2064487437,-0.040039,-0.104248,0.991943,2.655029,0.457764,-0.915527,8.862305,12.817383,7.690430
2067443747,-0.041748,-0.099854,0.993652,2.624512,0.701904,-0.854492,8.862305,12.817383,7.690430
2069959442,-0.039551,-0.101807,0.994629,2.746582,0.488281,-0.823975,8.862305,12.817383,7.690430
2072972367,-0.041748,-0.105469,0.999023,2.807617,0.732422,-1.007080,8.862305,12.817383,7.690430
2075465908,-0.044678,-0.100830,1.004639,2.532959,0.335693,-0.793457,8.862305,12.817383,7.690430
2077972576,-0.045898,-0.101807,0.999756,2.655029,0.732422,-0.823975,8.862305,12.817383,7.690430
2080420578,-0.045898,-0.101074,1.002441,2.655029,0.457764,-1.068115,8.862305,12.817383,7.690430
2082927247,-0.043701,-0.104980,0.993164,2.685547,0.640869,-0.732422,7.983398,12.963867,7.543945
2085469608,-0.042969,-0.102539,0.998779,2.532959,0.793457,-0.915527,7.983398,12.963867,7.543945
2087968892,-0.045898,-0.102783,0.994141,2.838135,0.762939,-0.640869,7.983398,12.963867,7.543945
2090971151,-0.042480,-0.101074,0.996826,2.471924,0.457764,-0.854492,7.983398,12.963867,7.543945
2093525820,-0.042236,-0.100830,1.000732,2.563477,0.427246,-0.854492,7.983398,12.963867,7.543945
2095963976,-0.044189,-0.104492,0.997070,2.593994,0.640869,-0.793457,7.983398,12.963867,7.543945
2098461208,-0.045410,-0.101563,0.994629,2.593994,0.488281,-0.976563,7.983398,12.963867,7.543945
2101018339,-0.043457,-0.104248,0.993652,2.288818,0.793457,-0.793457,7.983398,12.963867,7.543945
2103518854,-0.040527,-0.101807,0.993408,2.777100,0.793457,-0.732422,7.983398,12.524414,7.104492
2106086240,-0.042725,-0.103760,0.988281,2.563477,0.488281,-0.793457,7.983398,12.524414,7.104492
2109020397,-0.043701,-0.105957,0.999756,2.838135,0.488281,-0.854492,7.983398,12.524414,7.104492
2111518450,-0.041748,-0.102783,0.998047,2.685547,0.915527,-0.732422,8.422852,12.524414,7.104492
2114094042,-0.040527,-0.105469,0.997803,2.624512,0.823975,-0.885010,8.422852,12.670898,6.958008
2117066352,-0.042236,-0.104980,1.000488,2.929688,0.457764,-0.854492,8.422852,12.670898,6.958008
2120015688,-0.048096,-0.100098,0.993408,2.502441,0.610352,-0.885010,8.422852,12.670898,6.958008
2122521946,-0.040283,-0.100830,0.992920,2.593994,0.457764,-0.793457,7.617188,13.037109,7.470703
2125557436,-0.041260,-0.103516,0.989258,2.838135,0.610352,-0.946045,7.617188,13.037109,7.470703
2128236002,-0.042725,-0.102295,0.996582,2.532959,0.823975,-0.885010,7.617188,13.037109,7.470703
2131253030,-0.040771,-0.101563,0.997314,2.868652,0.335693,-0.640869,7.617188,13.037109,7.470703
2133754366,-0.044189,-0.102295,0.993896,2.441406,0.762939,-0.762939,7.836914,12.817383,7.104492
2136309034,-0.044434,-0.098389,0.989746,2.838135,0.427246,-0.854492,7.836914,12.817383,7.104492
2138813652,-0.040527,-0.100586,0.996338,2.563477,0.762939,-0.915527,7.836914,12.817383,7.104492
2141409346,-0.041992,-0.102783,0.992920,2.532959,0.793457,-1.037598,8.129883,13.256836,7.397461
2144345144,-0.041992,-0.099854,0.997070,2.410889,0.701904,-0.671387,8.129883,13.256836,7.397461
2147086889,-0.041016,-0.097900,0.998779,2.807617,0.793457,-0.823975,8.129883,13.256836,7.397461
2149592327,-0.042236,-0.101807,0.990479,2.624512,0.610352,-0.854492,8.129883,13.256836,7.397461
2152083406,-0.040039,-0.100830,0.993652,2.746582,0.640869,-1.007080,8.349609,12.744141,7.177734
2154581870,-0.041992,-0.098633,0.996826,2.563477,0.640869,-0.762939,8.349609,12.744141,7.177734
2157536949,-0.043457,-0.100830,0.995850,2.685547,0.610352,-0.823975,8.349609,12.744141,7.177734
2160489977,-0.040527,-0.101807,0.997803,2.532959,0.610352,-1.037598,8.349609,12.744141,7.177734
2163544749,-0.041260,-0.102051,0.993896,2.868652,0.640869,-0.793457,8.349609,12.744141,7.177734
2166362803,-0.040771,-0.099854,0.999512,2.593994,0.518799,-0.640869,8.349609,12.744141,7.177734
2169246497,-0.041992,-0.102295,0.990967,2.624512,0.762939,-1.037598,8.349609,12.744141,7.177734
2172562192,-0.043213,-0.101563,0.999023,2.777100,0.549316,-0.732422,8.203125,13.330078,7.617188
2175075015,-0.045898,-0.106201,1.000732,2.716064,0.549316,-0.885010,8.203125,13.330078,7.617188
2177528761,-0.043213,-0.100342,0.998047,2.593994,0.579834,-0.976563,8.203125,13.330078,7.617188
2180485071,-0.043945,-0.101563,0.998291,2.593994,0.671387,-0.823975,8.203125,13.330078,7.617188
2182987227,-0.042480,-0.099365,0.995117,2.380371,0.671387,-0.915527,8.203125,13.330078,7.617188
2185786408,-0.042480,-0.104980,0.993164,2.777100,0.793457,-0.885010,8.203125,13.330078,7.617188
2188286103,-0.042236,-0.104980,1.000244,2.471924,0.579834,-0.793457,8.203125,13.330078,7.617188
2191193182,-0.043945,-0.101563,0.998047,2.807617,0.640869,-0.823975,8.203125,13.330078,7.617188
2193731851,-0.044434,-0.103516,1.001221,2.532959,0.427246,-0.823975,8.789063,13.330078,7.617188
2196220468,-0.040039,-0.099365,0.993652,2.655029,0.518799,-0.640869,8.789063,13.330078,7.617188
2199022112,-0.046875,-0.103271,0.992188,2.532959,0.488281,-0.701904,8.789063,13.330078,7.617188
2201566934,-0.045898,-0.102051,1.001465,2.807617,0.701904,-0.823975,8.789063,13.330078,7.617188
2204058423,-0.043701,-0.106201,0.993408,2.716064,0.488281,-0.701904,8.789063,13.330078,7.617188
2207020067,-0.042725,-0.103027,0.992676,2.685547,0.640869,-1.068115,8.789063,13.330078,7.617188
2209536582,-0.043945,-0.100098,1.003662,2.746582,0.427246,-0.793457,8.789063,13.330078,7.617188
2212038327,-0.042236,-0.101563,1.000977,2.716064,0.762939,-0.885010,8.642578,12.158203,7.470703
2214533919,-0.041260,-0.101318,0.996826,2.593994,0.518799,-0.762939,8.642578,12.158203,7.470703
2217100896,-0.047119,-0.103271,0.994385,2.655029,0.793457,-0.854492,8.642578,12.158203,7.470703
2219935770,-0.042725,-0.101318,1.000488,2.746582,0.427246,-0.671387,8.642578,12.158203,7.470703
2222962234,-0.040039,-0.099854,1.000000,2.563477,0.579834,-0.885010,8.642578,12.158203,7.470703
2225498441,-0.045898,-0.101318,0.995850,2.532959,0.579834,-0.671387,8.642578,12.158203,7.470703
2227981315,-0.044434,-0.100586,0.991699,2.838135,0.457764,-0.854492,8.642578,12.158203,7.470703
2230586035,-0.043945,-0.103760,0.990479,2.563477,0.579834,-0.946045,8.642578,12.158203,7.470703
2233103370,-0.045654,-0.103760,0.994141,2.685547,0.579834,-1.007080,8.569336,13.256836,7.543945
2235603885,-0.045166,-0.100342,0.996826,2.746582,0.488281,-0.671387,8.569336,13.256836,7.543945
2238251272,-0.044678,-0.100342,0.994141,2.349854,0.732422,-1.068115,8.569336,13.256836,7.543945
2240952813,-0.041260,-0.098877,0.993164,2.929688,0.732422,-0.793457,8.569336,13.256836,7.543945
2243488610,-0.044189,-0.100830,0.998779,2.685547,0.671387,-0.946045,8.569336,13.256836,7.543945
2246247176,-0.042725,-0.103271,0.999756,2.655029,0.640869,-0.793457,8.569336,13.256836,7.543945
2248751383,-0.040039,-0.103271,0.997559,2.807617,0.610352,-0.885010,8.569336,13.256836,7.543945
2251274462,-0.044922,-0.100342,0.996338,2.471924,0.610352,-0.885010,8.056641,12.744141,7.324219
2253775387,-0.041504,-0.100830,0.999268,2.838135,0.518799,-0.854492,8.056641,12.744141,7.324219
2256679184,-0.041260,-0.102295,0.994629,2.593994,0.732422,-0.671387,8.056641,12.744141,7.324219
2259237135,-0.047607,-0.104248,0.989990,2.563477,0.671387,-0.854492,8.056641,12.744141,7.324219
2262219702,-0.041992,-0.104492,0.991699,2.502441,0.579834,-1.037598,8.056641,12.744141,7.324219
2264880627,-0.038818,-0.101807,0.998779,2.960205,0.701904,-0.793457,8.056641,12.744141,7.324219
2267429142,-0.043701,-0.097900,0.997314,2.624512,0.640869,-0.854492,8.056641,12.744141,7.324219
2269919811,-0.040771,-0.100342,0.999756,2.593994,0.488281,-0.854492,8.056641,12.744141,7.324219
2272419505,-0.043701,-0.096191,0.992432,2.563477,0.579834,-0.671387,8.642578,13.037109,7.177734
2275175200,-0.043945,-0.101807,0.992432,2.563477,0.427246,-1.068115,8.642578,13.037109,7.177734
2277727817,-0.041016,-0.096924,0.995605,2.685547,0.427246,-0.701904,8.642578,13.037109,7.177734
2280240229,-0.042725,-0.102051,0.997314,2.502441,0.610352,-0.915527,8.642578,13.037109,7.177734
2282788334,-0.042969,-0.098877,0.997314,2.777100,0.762939,-0.885010,8.642578,13.037109,7.177734
2285686388,-0.043701,-0.100586,0.992676,2.532959,0.640869,-0.823975,8.642578,13.037109,7.177734
2288189364,-0.044922,-0.100830,0.995117,2.532959,0.457764,-0.793457,8.642578,13.037109,7.177734
2290739110,-0.041260,-0.099609,1.001465,2.685547,0.640869,-0.793457,8.349609,12.890625,6.884766
2293737266,-0.043457,-0.100830,0.995605,2.746582,0.579834,-0.823975,8.349609,12.890625,6.884766
2296291935,-0.044189,-0.103760,0.991943,2.685547,0.701904,-0.915527,8.349609,12.890625,6.884766
2298803937,-0.038818,-0.101563,0.998047,2.593994,0.579834,-0.610352,8.349609,12.890625,6.884766
2302065478,-0.045654,-0.099121,1.000488,2.441406,0.579834,-1.098633,8.496094,12.158203,7.470703
2304501172,-0.043213,-0.106201,0.999756,2.563477,0.518799,-0.885010,8.496094,12.158203,7.470703
2307119841,-0.039795,-0.103027,1.001709,2.655029,0.762939,-1.037598,8.496094,12.158203,7.470703
2310133177,-0.045898,-0.100098,0.996338,2.563477,0.640869,-0.793457,8.496094,12.158203,7.470703
2312633692,-0.043701,-0.103027,0.995361,2.655029,0.518799,-0.793457,8.129883,13.256836,7.250977
2315127232,-0.039307,-0.101074,0.995605,2.929688,0.518799,-0.823975,8.129883,13.256836,7.250977
2317640465,-0.041992,-0.100830,0.999512,2.502441,0.762939,-0.640869,8.129883,13.256836,7.250977
2320589801,-0.040527,-0.101074,0.990967,2.502441,0.732422,-0.885010,8.129883,13.256836,7.250977
2323190829,-0.041748,-0.101807,0.989990,2.502441,0.640869,-0.915527,7.763672,13.330078,7.617188
2325818523,-0.041748,-0.099854,0.991211,2.624512,0.579834,-0.762939,7.763672,13.330078,7.617188
2328266936,-0.041992,-0.103516,0.992432,2.716064,0.671387,-0.701904,7.763672,13.330078,7.617188
2331070220,-0.043457,-0.100342,0.993652,2.410889,0.366211,-0.823975,8.276367,12.670898,7.397461
2334121710,-0.043213,-0.098877,0.998047,2.624512,0.671387,-1.037598,8.276367,12.670898,7.397461
2336594327,-0.043945,-0.097168,0.996094,2.838135,0.518799,-0.701904,8.276367,12.670898,7.397461
2339158432,-0.046387,-0.098877,0.993408,2.471924,0.640869,-1.068115,8.276367,12.670898,7.397461
2342138537,-0.039551,-0.098389,0.993408,2.593994,0.488281,-0.854492,8.496094,12.597656,7.031250
2344681718,-0.041748,-0.101807,0.997070,2.410889,0.640869,-0.793457,8.496094,12.597656,7.031250
2347170336,-0.041016,-0.104736,0.985840,2.716064,0.518799,-1.068115,8.496094,12.597656,7.031250
2349917825,-0.040527,-0.096436,0.992432,2.563477,0.335693,-0.762939,8.496094,12.597656,7.031250
2352400699,-0.041260,-0.101074,0.997559,2.593994,0.305176,-0.854492,8.496094,12.597656,7.031250
2355160496,-0.044434,-0.101074,0.998779,2.380371,0.518799,-0.854492,8.496094,12.597656,7.031250
2357662242,-0.043213,-0.101318,0.996582,2.532959,0.457764,-0.946045,8.496094,12.597656,7.031250
2360737116,-0.042725,-0.101563,0.997070,2.410889,0.427246,-0.640869,8.496094,12.597656,7.031250
2363531785,-0.044922,-0.105957,1.000977,2.593994,0.701904,-0.793457,7.910156,12.744141,8.056641
2366481121,-0.041992,-0.098877,0.998047,2.624512,0.488281,-0.915527,7.910156,12.744141,8.056641
2369438251,-0.040771,-0.101807,1.000977,2.410889,0.671387,-0.885010,7.910156,12.744141,8.056641
2371944920,-0.041504,-0.103271,0.993652,2.593994,0.518799,-1.037598,7.910156,12.744141,8.056641
2374493435,-0.041992,-0.100342,0.998047,2.716064,0.579834,-0.854492,7.910156,12.744141,8.056641
2376996001,-0.042725,-0.099854,0.995850,2.563477,0.671387,-0.854492,7.910156,12.744141,8.056641
2379496106,-0.043945,-0.105469,0.995361,2.685547,0.488281,-0.915527,7.910156,12.744141,8.056641
2382045851,-0.041016,-0.102539,1.001221,2.593994,0.671387,-0.793457,8.422852,13.549805,7.250977
2385002982,-0.045898,-0.103516,0.989746,2.532959,0.610352,-0.823975,8.422852,13.549805,7.250977
2387518676,-0.040771,-0.101563,0.998291,2.624512,0.396729,-0.762939,8.422852,13.549805,7.250977
2390065140,-0.043457,-0.099365,0.997070,2.746582,0.732422,-0.915527,8.422852,13.549805,7.250977
2393086681,-0.041260,-0.102295,0.993896,2.471924,0.488281,-0.793457,8.422852,13.549805,7.250977
2396069658,-0.043213,-0.102539,0.992920,2.685547,0.579834,-0.762939,8.422852,13.549805,7.250977
2398686275,-0.042725,-0.099854,0.999756,2.655029,0.488281,-0.732422,8.422852,13.549805,7.250977
2401734483,-0.041748,-0.100342,0.998779,2.624512,0.457764,-0.793457,8.276367,13.403320,7.104492
2404170588,-0.042725,-0.099854,0.989746,2.868652,0.701904,-0.854492,8.276367,13.403320,7.104492
2407069462,-0.038574,-0.102539,0.997314,2.593994,0.396729,-0.579834,8.276367,13.403320,7.104492
2410115208,-0.042969,-0.101563,0.995850,2.716064,0.457764,-1.251221,8.276367,13.403320,7.104492
2413055928,-0.042236,-0.098877,0.993164,2.502441,0.457764,-0.762939,8.276367,13.403320,7.104492
2415557264,-0.042725,-0.101563,0.995850,2.471924,0.762939,-1.007080,8.276367,13.403320,7.104492
2418109471,-0.039551,-0.101807,0.993164,2.685547,0.701904,-0.915527,8.276367,13.403320,7.104492
2420606293,-0.040771,-0.102539,0.994629,2.624512,0.701904,-0.885010,8.276367,13.696289,7.250977
2423620860,-0.042725,-0.103516,0.996094,2.777100,0.762939,-0.732422,8.276367,13.696289,7.250977
2426623529,-0.042969,-0.104004,0.993652,2.716064,0.396729,-0.762939,8.276367,13.696289,7.250977
2429568762,-0.044189,-0.100342,0.993652,2.685547,0.549316,-1.098633,8.276367,13.696289,7.250977
2432090610,-0.041748,-0.100586,0.998779,2.685547,0.488281,-0.946045,8.276367,13.696289,7.250977
2434641177,-0.040039,-0.101807,0.997070,2.899170,0.579834,-0.915527,8.276367,13.696289,7.250977
2437090820,-0.043945,-0.103027,0.999268,2.532959,0.366211,-0.793457,8.276367,13.696289,7.250977
2439541283,-0.043457,-0.103760,1.003418,2.655029,0.732422,-0.793457,8.276367,13.696289,7.250977
2442064772,-0.042480,-0.103271,0.998779,2.685547,0.549316,-0.976563,7.763672,12.890625,6.738281
2444550928,-0.043701,-0.100342,1.000488,2.868652,0.518799,-0.701904,7.763672,12.890625,6.738281
2447514213,-0.043701,-0.105469,0.994629,2.563477,0.701904,-0.823975,7.763672,12.890625,6.738281
2450508267,-0.043945,-0.100830,0.989014,2.716064,0.305176,-0.885010,7.763672,12.890625,6.738281
2453016987,-0.041992,-0.100830,0.997803,2.563477,0.885010,-0.793457,7.763672,12.890625,6.738281
2455770630,-0.041016,-0.104980,0.997314,2.502441,0.549316,-0.854492,7.763672,12.890625,6.738281
2458330222,-0.044189,-0.103027,0.992676,2.807617,0.579834,-1.068115,7.763672,12.890625,6.738281
2461084686,-0.043213,-0.101563,0.996338,2.380371,0.671387,-0.762939,8.129883,12.524414,7.543945
2463654944,-0.044189,-0.101807,0.995850,2.441406,0.793457,-0.671387,8.129883,12.524414,7.543945
2466204690,-0.042725,-0.101318,1.001465,2.685547,0.549316,-0.854492,8.129883,12.524414,7.543945
2468757717,-0.045898,-0.101807,0.992920,2.471924,0.671387,-0.854492,8.129883,12.524414,7.543945
2471606130,-0.041992,-0.104248,0.999023,2.563477,0.518799,-0.640869,8.129883,12.524414,7.543945
2474602235,-0.044434,-0.102783,0.999023,2.807617,0.701904,-0.762939,8.129883,12.524414,7.543945
2477104801,-0.043213,-0.099609,0.989746,2.563477,0.762939,-0.732422,8.129883,12.524414,7.543945
2479606547,-0.043213,-0.100830,0.991211,2.777100,0.640869,-1.007080,8.129883,12.524414,7.543945
2482117728,-0.041748,-0.104492,0.995605,2.593994,0.244141,-0.823975,7.763672,12.890625,7.031250
2485074859,-0.041260,-0.101563,0.997803,2.288818,0.640869,-0.671387,7.763672,12.890625,7.031250
2487762861,-0.046387,-0.101318,0.994873,2.563477,0.396729,-1.007080,7.763672,12.890625,7.031250
2491286556,-0.044678,-0.105957,0.993652,2.593994,0.396729,-0.579834,8.276367,12.524414,7.250977
2494272815,-0.040283,-0.102051,0.991455,2.685547,0.579834,-0.946045,8.276367,12.524414,7.250977
2496773330,-0.046143,-0.101807,0.997559,2.166748,0.579834,-0.915527,8.276367,12.524414,7.250977
2499474461,-0.041748,-0.099365,0.997070,2.777100,0.518799,-0.823975,8.276367,12.524414,7.250977
2502184206,-0.039307,-0.105957,0.999512,2.655029,0.640869,-0.885010,8.349609,13.330078,7.763672
2505136004,-0.046143,-0.098877,0.991455,2.807617,0.610352,-1.068115,8.349609,13.330078,7.763672
2507738262,-0.046631,-0.098877,0.996826,2.471924,0.396729,-0.854492,8.349609,13.330078,7.763672
2510238777,-0.041748,-0.101074,0.993652,2.807617,0.610352,-0.946045,8.789063,12.304688,7.470703
2513197959,-0.042969,-0.100098,0.989990,2.075195,0.549316,-0.793457,8.789063,12.304688,7.470703
2515686166,-0.043213,-0.101563,0.999268,2.685547,0.732422,-0.793457,8.789063,12.304688,7.470703
2518244938,-0.043457,-0.102295,0.994873,2.532959,0.335693,-1.037598,8.789063,12.304688,7.470703
2521224222,-0.041260,-0.103516,0.992920,2.807617,0.488281,-0.732422,7.836914,13.110352,7.104492
2523773147,-0.043457,-0.106201,1.000977,2.838135,0.762939,-0.885010,7.836914,13.110352,7.104492
2526270380,-0.042969,-0.102295,0.993164,2.655029,0.549316,-0.976563,7.836914,13.110352,7.104492
2528720844,-0.045410,-0.101563,0.999268,2.441406,0.488281,-0.885010,7.836914,13.110352,7.104492
2531715308,-0.040771,-0.104004,0.998779,2.655029,0.732422,-0.854492,7.910156,13.183594,7.031250
2534224848,-0.043213,-0.101318,0.996582,2.624512,0.701904,-0.946045,7.910156,13.183594,7.031250
2536724132,-0.041992,-0.104248,0.994141,2.532959,0.335693,-0.823975,7.910156,13.183594,7.031250
2539208237,-0.043945,-0.102539,0.997314,2.380371,0.671387,-0.793457,7.910156,13.183594,7.031250
2542262188,-0.042236,-0.100830,0.992188,2.868652,0.610352,-0.823975,7.910156,12.890625,7.470703
2544736857,-0.042969,-0.100098,0.996582,2.685547,0.488281,-1.129150,7.910156,12.890625,7.470703
2547243936,-0.039307,-0.102295,0.999023,2.593994,0.701904,-0.701904,7.910156,12.890625,7.470703
2550201477,-0.045166,-0.103027,1.000977,2.471924,0.549316,-0.854492,7.690430,13.549805,7.543945
2553193889,-0.043457,-0.099854,0.989990,2.563477,0.457764,-0.793457,7.690430,13.549805,7.543945
2555744045,-0.040527,-0.104248,0.999512,2.777100,0.366211,-0.793457,7.690430,13.549805,7.543945
2558806202,-0.041016,-0.099365,0.997314,3.021240,0.549316,-0.762939,7.690430,13.549805,7.543945
2561756768,-0.039307,-0.101318,0.992676,2.624512,0.366211,-0.915527,7.690430,13.549805,7.543945
2564314309,-0.039063,-0.102539,0.993896,2.746582,0.579834,-0.946045,7.690430,13.549805,7.543945
2566804567,-0.040527,-0.107666,0.990967,2.685547,0.610352,-0.885010,7.690430,13.549805,7.543945
2569314928,-0.041016,-0.103760,0.996094,2.777100,0.427246,-0.793457,7.690430,13.549805,7.543945
2571874110,-0.043701,-0.101807,0.997559,2.685547,0.762939,-0.701904,7.836914,13.256836,6.811523
2574491958,-0.046875,-0.102783,0.997803,2.471924,0.701904,-0.885010,7.836914,13.256836,6.811523
2577532371,-0.041260,-0.102051,0.997803,2.746582,0.518799,-0.823975,7.836914,13.256836,6.811523
2580342219,-0.041016,-0.095703,0.998779,2.685547,0.396729,-0.823975,7.836914,13.256836,6.811523
2582848478,-0.041016,-0.104492,1.000732,2.746582,0.579834,-0.701904,7.836914,13.256836,6.811523
2585499557,-0.045166,-0.101807,0.994629,2.990723,0.457764,-0.732422,7.836914,13.256836,6.811523
2588053815,-0.040771,-0.100830,0.996826,2.685547,0.579834,-0.976563,7.836914,13.256836,6.811523
2590526843,-0.045166,-0.104492,0.996094,2.349854,0.640869,-0.854492,8.422852,13.110352,7.690430
2593010948,-0.041016,-0.099121,1.002441,2.838135,0.823975,-0.854492,8.422852,13.110352,7.690430
2595584078,-0.047607,-0.100586,0.989502,2.563477,0.549316,-0.579834,8.422852,13.110352,7.690430
2598122336,-0.040283,-0.101318,0.993896,2.899170,0.579834,-0.946045,8.422852,13.110352,7.690430
2600721723,-0.042236,-0.100830,0.994873,2.868652,0.762939,-0.854492,8.422852,13.110352,7.690430
2603222648,-0.037354,-0.098877,0.999512,2.441406,0.823975,-0.732422,8.422852,13.110352,7.690430
2605723163,-0.040283,-0.099365,0.993652,2.807617,0.396729,-0.946045,8.422852,13.110352,7.690430
2608292601,-0.042969,-0.102051,0.997559,2.655029,0.518799,-0.793457,8.422852,13.110352,7.690430
2611305527,-0.043457,-0.101074,0.990723,2.868652,0.305176,-0.915527,8.203125,12.744141,7.470703
2614295888,-0.044434,-0.104248,0.992676,2.441406,0.488281,-0.823975,8.203125,12.744141,7.470703
2616794762,-0.044189,-0.096680,0.991699,2.624512,0.640869,-0.671387,8.203125,12.744141,7.470703
2619303072,-0.041504,-0.100098,1.007813,2.685547,0.488281,-0.946045,8.203125,12.744141,7.470703
2621874561,-0.039551,-0.102539,0.990723,2.532959,0.488281,-0.732422,8.203125,12.744141,7.470703
2624424717,-0.043945,-0.104248,0.995850,2.655029,0.701904,-0.946045,8.203125,12.744141,7.470703
2627500822,-0.042480,-0.105225,0.996338,2.899170,0.427246,-1.007080,8.203125,12.744141,7.470703
2630436209,-0.035889,-0.102539,0.997559,2.380371,0.671387,-0.915527,7.983398,12.963867,6.958008
2632978160,-0.042725,-0.100830,0.996094,2.838135,0.671387,-0.701904,7.983398,12.963867,6.958008
2635479906,-0.042236,-0.102051,0.987549,2.655029,0.579834,-0.885010,7.983398,12.963867,6.958008
2638227805,-0.040771,-0.101074,0.998047,2.868652,0.579834,-0.854492,7.983398,12.963867,6.958008
2641366269,-0.043701,-0.104004,0.996094,2.593994,0.518799,-0.762939,7.983398,12.963867,6.958008
2643846682,-0.037842,-0.102295,0.990479,2.288818,0.671387,-0.793457,7.983398,12.963867,6.958008
2646295914,-0.042480,-0.102539,0.990479,2.624512,0.610352,-0.854492,7.983398,12.963867,6.958008
2648744737,-0.041748,-0.107910,0.995117,2.807617,0.427246,-0.823975,7.983398,12.963867,6.958008
2651332226,-0.042236,-0.100830,0.997070,2.838135,0.732422,-0.915527,8.349609,13.183594,7.324219
2653855305,-0.041016,-0.103516,0.997314,2.563477,0.518799,-0.793457,8.349609,13.183594,7.324219
2656352538,-0.046143,-0.106201,0.998291,2.685547,0.732422,-0.946045,8.349609,13.183594,7.324219
2659734284,-0.044922,-0.100586,0.993164,2.655029,0.518799,-0.915527,8.349609,13.183594,7.324219
2662276235,-0.041016,-0.102783,0.995605,2.593994,0.610352,-0.823975,8.349609,13.183594,7.324219
2664776340,-0.039795,-0.100098,0.990967,2.593994,0.457764,-0.793457,8.349609,13.183594,7.324219
2667283419,-0.043701,-0.100342,0.999023,2.349854,0.701904,-0.823975,8.349609,13.183594,7.324219
2669777780,-0.045654,-0.101318,0.994873,2.990723,0.762939,-0.610352,7.836914,12.817383,6.665039
2672276654,-0.040771,-0.101318,0.995850,2.716064,0.671387,-0.762939,7.836914,12.817383,6.665039
2674803835,-0.045898,-0.104004,1.005127,2.380371,0.305176,-0.976563,7.836914,12.817383,6.665039
2677751120,-0.047607,-0.102295,1.002197,2.990723,0.457764,-0.671387,7.836914,12.817383,6.665039
2680267635,-0.043213,-0.097900,1.002197,2.441406,0.762939,-1.007080,7.836914,12.817383,6.665039
2682764047,-0.047119,-0.102783,0.998779,2.746582,0.549316,-0.946045,7.836914,12.817383,6.665039
2685727742,-0.044922,-0.101074,0.990723,2.471924,0.640869,-0.671387,7.836914,12.817383,6.665039
2688698000,-0.042725,-0.104736,0.994385,2.838135,0.640869,-0.854492,7.836914,12.817383,6.665039
2691296156,-0.045898,-0.100342,0.999268,2.563477,0.457764,-0.701904,8.349609,12.890625,7.617188
2694314415,-0.041016,-0.099609,0.993164,2.807617,0.640869,-0.701904,8.349609,12.890625,7.617188
2697272777,-0.041748,-0.102539,0.996094,2.593994,0.671387,-1.037598,8.349609,12.890625,7.617188
2699828676,-0.042969,-0.103760,0.996582,2.746582,0.518799,-0.854492,8.203125,13.623047,7.177734
2702800576,-0.043945,-0.105469,0.992188,2.716064,0.854492,-0.762939,8.203125,13.623047,7.177734
2705382322,-0.042969,-0.104004,1.002197,2.624512,0.549316,-0.946045,8.203125,13.623047,7.177734
2707936991,-0.040283,-0.101074,0.994873,2.899170,0.640869,-0.671387,8.203125,13.623047,7.177734
2710950326,-0.040039,-0.102539,0.992676,2.532959,0.488281,-0.610352,8.569336,12.817383,7.690430
2713660893,-0.044678,-0.102539,1.000488,2.807617,0.793457,-0.885010,8.569336,12.817383,7.690430
2716158946,-0.044922,-0.098633,0.989258,2.685547,0.610352,-0.885010,8.569336,12.817383,7.690430
2718609410,-0.044189,-0.102051,1.000488,2.655029,0.610352,-0.610352,8.569336,12.817383,7.690430
2721121001,-0.044678,-0.099609,0.994629,2.746582,0.457764,-0.793457,7.983398,12.817383,7.690430
2724122850,-0.046143,-0.103027,0.993164,2.899170,0.610352,-0.885010,7.983398,12.817383,7.690430
2726672596,-0.045898,-0.102783,0.992188,2.746582,0.488281,-0.701904,7.983398,12.817383,7.690430
2729172700,-0.041748,-0.103271,1.001953,2.471924,0.579834,-0.854492,7.983398,12.963867,7.836914
2732065010,-0.044678,-0.101074,0.993652,2.838135,0.701904,-0.946045,7.983398,12.963867,7.836914
2734822346,-0.041748,-0.101318,0.994385,2.319336,0.457764,-0.732422,7.983398,12.963867,7.836914
2737747887,-0.044434,-0.101318,0.998535,2.624512,0.640869,-1.098633,7.983398,12.963867,7.836914
2740734146,-0.044189,-0.101563,0.995117,2.685547,0.610352,-1.037598,8.422852,12.670898,7.690430
2743235481,-0.042236,-0.102539,1.001465,2.716064,0.732422,-0.823975,8.422852,12.670898,7.690430
2745806970,-0.040283,-0.098877,1.000000,2.532959,0.579834,-0.762939,8.422852,12.670898,7.690430
2748697639,-0.043457,-0.101318,0.992920,2.655029,0.671387,-0.854492,8.422852,12.670898,7.690430
2751330667,-0.046143,-0.101074,0.998291,2.685547,0.457764,-0.946045,8.569336,13.110352,7.250977
2754303798,-0.043701,-0.100586,0.999756,2.563477,0.335693,-1.037598,8.569336,13.110352,7.250977
2756821544,-0.043701,-0.101318,1.000244,2.593994,0.579834,-0.671387,8.569336,13.110352,7.250977
2759316725,-0.041748,-0.103027,0.995850,2.960205,0.579834,-0.915527,7.983398,13.256836,7.397461
2762289856,-0.043701,-0.096191,0.992920,2.624512,0.579834,-0.854492,7.983398,13.256836,7.397461
2764741960,-0.042969,-0.101807,0.997803,2.655029,0.549316,-0.854492,7.983398,13.256836,7.397461
2767347501,-0.044434,-0.100586,1.001221,2.838135,0.488281,-0.854492,7.983398,13.256836,7.397461
2769842272,-0.043945,-0.099854,0.996582,2.410889,0.793457,-0.732422,7.983398,13.256836,7.397461
2772855608,-0.041992,-0.102539,0.994385,2.502441,0.610352,-0.732422,7.983398,13.256836,7.397461
2775445559,-0.040283,-0.103516,0.998535,2.502441,0.579834,-0.793457,7.983398,13.256836,7.397461
2778222177,-0.043701,-0.100830,0.988525,2.685547,0.244141,-0.915527,7.983398,13.256836,7.397461
2780765358,-0.043213,-0.103760,0.994385,2.410889,0.549316,-0.823975,7.690430,13.256836,7.104492
2783766796,-0.041504,-0.099854,0.996582,2.532959,0.701904,-1.037598,7.690430,13.256836,7.104492
2786268542,-0.040771,-0.103027,0.998535,2.838135,0.457764,-0.885010,7.690430,13.256836,7.104492
2789224852,-0.042480,-0.103760,0.996338,2.777100,0.549316,-0.885010,7.690430,13.256836,7.104492
2791759008,-0.044922,-0.099854,1.000977,2.807617,0.732422,-0.976563,7.690430,13.256836,7.104492
2794267728,-0.043945,-0.098877,0.989502,2.441406,0.823975,-0.732422,7.690430,13.256836,7.104492
2797267936,-0.041016,-0.103271,0.991455,2.716064,0.488281,-0.915527,7.690430,13.256836,7.104492
2799792245,-0.044434,-0.104004,0.999023,2.899170,0.549316,-0.823975,8.935547,12.890625,7.617188
2802765376,-0.040283,-0.100830,0.991455,2.655029,0.793457,-0.701904,8.935547,12.890625,7.617188
2805677789,-0.040527,-0.100830,0.996094,2.563477,0.549316,-0.823975,8.935547,12.890625,7.617188
2808171329,-0.042969,-0.100586,0.992920,2.502441,0.610352,-0.976563,8.935547,12.890625,7.617188
2810668152,-0.042969,-0.103027,0.997803,2.624512,0.701904,-0.762939,8.935547,12.890625,7.617188
2813171128,-0.044189,-0.097656,0.996826,2.685547,0.488281,-0.671387,8.935547,12.890625,7.617188
2815749182,-0.041748,-0.098389,0.994873,2.929688,0.640869,-0.885010,8.935547,12.890625,7.617188
2818192671,-0.040771,-0.103027,0.995850,2.593994,0.610352,-0.915527,8.935547,12.890625,7.617188
2821107135,-0.041992,-0.097412,0.993408,2.410889,0.671387,-0.701904,8.129883,13.256836,7.104492
2823853804,-0.042725,-0.102539,0.993896,2.777100,0.640869,-0.762939,8.129883,13.256836,7.104492
2826798216,-0.045654,-0.102783,0.998291,2.716064,0.244141,-1.068115,8.129883,13.256836,7.104492
2829546116,-0.044678,-0.101807,1.002686,2.593994,0.549316,-0.823975,8.129883,13.256836,7.104492
2832094221,-0.041748,-0.104492,0.995605,2.471924,0.518799,-0.762939,8.129883,13.256836,7.104492
2835049300,-0.043213,-0.099854,0.995361,2.868652,0.640869,-0.854492,8.129883,13.256836,7.104492
2837715148,-0.042969,-0.100342,0.999023,2.624512,0.671387,-0.976563,8.129883,13.256836,7.104492
2840669817,-0.039551,-0.100586,0.999756,2.624512,0.549316,-0.549316,8.056641,13.183594,7.177734
2843196999,-0.038574,-0.098877,1.002197,2.716064,0.762939,-0.854492,8.056641,13.183594,7.177734
2845806232,-0.040527,-0.105225,0.993164,2.227783,0.640869,-1.068115,8.056641,13.183594,7.177734
2848700593,-0.039795,-0.103027,1.000244,2.685547,0.671387,-0.793457,8.056641,13.183594,7.177734
2851249108,-0.042969,-0.103516,0.998535,2.868652,0.518799,-0.823975,8.056641,13.183594,7.177734
2854219777,-0.042969,-0.101318,1.003906,2.441406,0.610352,-0.976563,8.056641,13.183594,7.177734
2856729728,-0.043213,-0.100830,0.990479,2.990723,0.457764,-0.640869,8.056641,13.183594,7.177734
2859802551,-0.043213,-0.097412,0.996826,2.838135,0.457764,-0.854492,7.983398,13.842773,7.250977
2862725630,-0.042725,-0.100342,1.002686,2.593994,0.671387,-0.976563,7.983398,13.842773,7.250977
2865224504,-0.042480,-0.101074,0.996094,2.380371,0.732422,-1.068115,7.983398,13.842773,7.250977
2867739378,-0.042236,-0.100342,0.997314,2.593994,0.671387,-0.793457,7.983398,13.842773,7.250977
2870429021,-0.041016,-0.101318,0.997559,2.532959,0.640869,-1.220703,7.983398,13.842773,7.250977
2873414460,-0.040771,-0.103271,0.997314,2.410889,0.671387,-1.037598,7.983398,13.842773,7.250977
2876445026,-0.041504,-0.100830,1.002441,2.838135,0.732422,-0.671387,7.983398,13.842773,7.250977
2878943080,-0.043945,-0.102783,1.001953,2.899170,0.762939,-0.793457,8.276367,12.524414,7.397461
2881569133,-0.042725,-0.100586,0.995850,2.349854,0.488281,-0.823975,8.276367,12.524414,7.397461
2884414674,-0.042480,-0.100830,0.998779,2.532959,0.701904,-0.915527,8.276367,12.524414,7.397461
2886912727,-0.041016,-0.100830,0.995117,2.685547,0.854492,-1.037598,8.276367,12.524414,7.397461
2889412011,-0.041016,-0.102783,0.996582,2.685547,0.671387,-0.793457,8.276367,12.524414,7.397461
2891916629,-0.044189,-0.102051,0.991211,2.777100,0.518799,-0.793457,8.276367,12.524414,7.397461
2894430682,-0.045410,-0.102051,1.002930,2.807617,0.701904,-0.976563,8.276367,12.524414,7.397461
2897425967,-0.043701,-0.100830,0.997070,2.716064,0.671387,-0.915527,8.276367,12.524414,7.397461
2900380225,-0.041016,-0.101318,1.000488,2.410889,0.640869,-0.671387,8.129883,13.549805,7.983398
2903399305,-0.043945,-0.102051,0.997314,2.410889,0.640869,-0.885010,8.129883,13.549805,7.983398
2905897358,-0.039063,-0.101807,0.995117,2.502441,0.579834,-0.854492,8.129883,13.549805,7.983398
2909105156,-0.043945,-0.098145,0.999268,2.563477,0.549316,-0.823975,8.496094,13.037109,7.910156
2912087312,-0.041992,-0.102783,0.990967,2.716064,0.488281,-0.915527,8.496094,13.037109,7.910156
2914543109,-0.045166,-0.101807,0.996094,2.624512,0.915527,-0.793457,8.496094,13.037109,7.910156
2917396034,-0.045410,-0.104248,0.994873,2.593994,0.885010,-1.037598,8.496094,13.037109,7.910156
2920112344,-0.045166,-0.104736,0.990967,2.807617,0.579834,-0.946045,7.470703,12.890625,7.324219
2923057577,-0.044434,-0.104980,1.001221,2.777100,0.457764,-0.671387,7.470703,12.890625,7.324219
2925595015,-0.042969,-0.103271,0.999023,2.685547,0.640869,-0.946045,7.470703,12.890625,7.324219
2928360146,-0.042480,-0.097900,0.997803,2.685547,0.396729,-0.793457,8.422852,12.377930,7.397461
2930858199,-0.039063,-0.107910,1.001953,2.502441,1.007080,-0.823975,8.422852,12.377930,7.397461
2933889586,-0.038086,-0.101563,0.997070,2.655029,0.457764,-0.793457,8.422852,12.377930,7.397461
2936396255,-0.041504,-0.098877,0.998291,2.563477,0.671387,-0.915527,8.422852,12.377930,7.397461
2938907847,-0.042236,-0.102539,0.997559,2.746582,0.640869,-1.159668,8.276367,12.817383,7.836914
2941427644,-0.044678,-0.101563,1.002686,2.777100,0.671387,-0.701904,8.276367,12.817383,7.836914
2943888364,-0.044922,-0.100098,1.000000,2.777100,0.549316,-1.068115,8.276367,12.817383,7.836914
2946560366,-0.042725,-0.103027,0.995605,2.410889,0.579834,-0.823975,8.276367,12.817383,7.836914
2949054317,-0.041260,-0.103027,0.990967,2.716064,0.518799,-1.007080,8.203125,12.890625,7.763672
2952056986,-0.040283,-0.099609,0.995361,2.655029,0.701904,-0.823975,8.203125,12.890625,7.763672
2955021501,-0.040527,-0.102295,0.999268,2.593994,0.762939,-0.976563,8.203125,12.890625,7.763672
2957579862,-0.040527,-0.101318,1.000000,2.655029,0.732422,-1.098633,8.203125,12.890625,7.763672
2960220275,-0.038086,-0.104004,0.995117,2.685547,0.488281,-0.701904,8.203125,12.890625,7.763672
2962732277,-0.041260,-0.101807,0.994629,2.624512,0.518799,-0.793457,8.203125,12.890625,7.763672
2965736587,-0.042480,-0.103271,0.998535,2.441406,0.732422,-0.976563,8.203125,12.890625,7.763672
2968236281,-0.044922,-0.100098,0.990967,2.624512,0.671387,-0.762939,8.056641,12.744141,7.617188
2970764693,-0.044434,-0.102295,1.003662,2.380371,0.396729,-0.793457,8.056641,12.744141,7.617188
2973267260,-0.042480,-0.102539,0.998047,2.990723,0.610352,-0.793457,8.056641,12.744141,7.617188
2975771057,-0.044678,-0.101563,1.001953,2.685547,0.701904,-0.823975,8.056641,12.744141,7.617188
2978281418,-0.042236,-0.100342,0.997070,2.746582,0.244141,-0.823975,8.056641,12.744141,7.617188
2980909112,-0.046631,-0.103027,0.998291,2.593994,0.671387,-0.793457,8.056641,12.744141,7.617188
2983773114,-0.040039,-0.100342,0.992432,2.532959,0.518799,-0.823975,8.056641,12.744141,7.617188
2986287168,-0.041748,-0.100098,0.991455,2.746582,0.518799,-0.762939,8.056641,12.744141,7.617188
2988774554,-0.041992,-0.100586,0.996338,2.441406,0.823975,-0.915527,8.642578,12.744141,7.324219
2991276710,-0.044678,-0.103271,0.995605,2.716064,0.732422,-0.793457,8.642578,12.744141,7.324219
2993775174,-0.039307,-0.101807,0.992920,2.746582,0.183105,-0.915527,8.642578,12.744141,7.324219
2996325330,-0.041504,-0.097656,0.994873,2.624512,0.579834,-0.732422,8.642578,12.744141,7.324219
2999241845,-0.038330,-0.105225,1.006592,2.807617,0.762939,-0.579834,8.642578,12.744141,7.324219
3002260104,-0.042236,-0.100098,0.993652,2.532959,0.549316,-0.701904,8.642578,12.744141,7.324219
3004761439,-0.041992,-0.103760,0.994629,2.777100,0.823975,-0.976563,8.642578,12.744141,7.324219
3007311185,-0.043457,-0.102539,0.996826,2.807617,0.732422,-0.579834,8.642578,12.744141,7.324219
3010282675,-0.043945,-0.104248,0.998047,2.807617,0.640869,-0.976563,8.569336,12.963867,7.543945
3012791805,-0.041992,-0.104248,0.992188,2.563477,0.244141,-0.671387,8.569336,12.963867,7.543945
3015295192,-0.043457,-0.100586,0.997559,2.777100,0.549316,-0.885010,8.569336,12.963867,7.543945
3017814578,-0.041748,-0.100586,0.996094,2.624512,0.396729,-0.701904,8.569336,12.963867,7.543945
3020762683,-0.044189,-0.100586,0.995117,2.502441,0.793457,-0.854492,8.569336,12.963867,7.543945
3023264839,-0.040771,-0.102539,0.996338,2.777100,0.427246,-0.823975,8.569336,12.963867,7.543945
3025766995,-0.044434,-0.101807,0.998291,2.471924,0.610352,-0.915527,8.569336,12.963867,7.543945
3028275305,-0.041260,-0.101807,1.001221,2.777100,0.793457,-0.640869,8.276367,13.110352,7.397461
3031320641,-0.041016,-0.102295,0.993164,2.716064,0.579834,-0.732422,8.276367,13.110352,7.397461
3033769463,-0.038086,-0.102051,0.996826,2.349854,0.549316,-0.701904,8.276367,13.110352,7.397461
3036324542,-0.040527,-0.101074,0.991455,2.502441,0.762939,-0.823975,8.276367,13.110352,7.397461
3038840236,-0.040527,-0.100830,0.996826,2.624512,0.579834,-0.823975,8.276367,13.110352,7.397461
3041578290,-0.048096,-0.103271,1.000977,2.258301,0.854492,-0.915527,8.276367,13.110352,7.397461
3044527626,-0.041748,-0.102539,0.994873,2.868652,0.488281,-1.007080,8.276367,13.110352,7.397461
3046979730,-0.044189,-0.103027,1.000732,2.593994,0.701904,-0.610352,8.276367,13.110352,7.397461
3050048861,-0.042969,-0.099365,0.991211,2.868652,1.007080,-0.915527,8.276367,13.256836,6.958008
3052951017,-0.044434,-0.101563,0.998291,2.624512,0.457764,-1.007080,8.276367,13.256836,6.958008
3055533584,-0.042480,-0.105225,0.999268,2.746582,0.518799,-0.671387,8.276367,13.256836,6.958008
3058052150,-0.044189,-0.102051,0.987549,2.471924,0.640869,-0.854492,8.276367,13.256836,6.958008
3060893178,-0.045410,-0.101318,0.999023,2.685547,0.610352,-0.946045,8.276367,13.256836,6.958008
3063728052,-0.043213,-0.104492,1.003174,2.502441,0.671387,-0.701904,8.276367,13.256836,6.958008
3066249079,-0.039307,-0.103516,0.991699,2.777100,0.549316,-1.037598,8.276367,13.256836,6.958008
3068748774,-0.044922,-0.101074,1.001709,2.471924,0.427246,-0.885010,8.569336,13.110352,6.518555
3071203750,-0.044189,-0.104980,1.002686,2.807617,0.518799,-0.762939,8.569336,13.110352,6.518555
3074068573,-0.037354,-0.098145,0.998047,2.655029,0.701904,-0.885010,8.569336,13.110352,6.518555
3077109396,-0.044434,-0.103027,1.005859,2.807617,0.457764,-1.220703,8.569336,13.110352,6.518555
3079966834,-0.045654,-0.102295,0.997070,2.746582,0.457764,-0.701904,8.569336,13.110352,6.518555
3082455862,-0.039795,-0.101074,0.994629,2.349854,0.762939,-0.915527,8.569336,13.110352,6.518555
3085416275,-0.040527,-0.102295,0.996826,2.593994,0.457764,-0.823975,8.569336,13.110352,6.518555
3087951661,-0.038086,-0.105957,0.995605,2.532959,0.488281,-0.976563,7.983398,12.963867,7.397461
3091447049,-0.040527,-0.101563,0.990723,2.929688,0.701904,-0.823975,7.983398,12.963867,7.397461
3093880282,-0.046143,-0.103271,0.994385,2.655029,0.640869,-0.915527,7.983398,12.963867,7.397461
3096330335,-0.041016,-0.103516,0.996826,2.593994,0.579834,-0.823975,7.983398,12.963867,7.397461
3099218132,-0.043701,-0.105957,0.990479,2.746582,0.518799,-0.823975,7.983398,12.963867,7.397461
3101738339,-0.041504,-0.102051,1.001221,2.868652,0.488281,-0.854492,7.983398,12.963867,7.397461
3104234341,-0.047607,-0.101807,0.993164,2.777100,0.701904,-0.823975,7.983398,12.963867,7.397461
3106798036,-0.043945,-0.103516,0.987305,2.593994,0.610352,-0.823975,7.983398,12.963867,7.397461
3109296499,-0.042725,-0.098877,0.996582,2.807617,0.427246,-0.915527,7.910156,12.744141,7.177734
3111795784,-0.040527,-0.101563,0.995850,2.593994,0.701904,-0.854492,7.910156,12.744141,7.177734
3114294657,-0.042725,-0.100098,0.991699,2.532959,0.610352,-0.640869,7.910156,12.744141,7.177734
3116993326,-0.047363,-0.096191,0.990234,2.532959,0.518799,-0.885010,7.910156,12.744141,7.177734
3119834764,-0.039551,-0.100342,0.998535,2.716064,0.549316,-1.037598,8.349609,13.037109,6.884766
3122787793,-0.043457,-0.100098,0.993896,2.655029,0.671387,-0.823975,8.349609,13.037109,6.884766
3125293641,-0.043701,-0.104004,1.001221,2.685547,0.701904,-0.823975,8.349609,13.037109,6.884766
3127787592,-0.043457,-0.100830,0.996582,2.655029,0.701904,-0.640869,7.690430,12.817383,7.104492
3130308209,-0.039307,-0.103027,0.997070,2.685547,0.518799,-0.885010,7.690430,12.817383,7.104492
3132807493,-0.046387,-0.103271,0.991943,2.380371,0.640869,-0.793457,7.690430,12.817383,7.104492
3135298982,-0.042480,-0.105469,0.994873,2.563477,0.335693,-0.793457,7.690430,12.817383,7.104492
3137814266,-0.041992,-0.101807,0.997559,2.441406,0.488281,-0.762939,8.203125,12.744141,7.324219
3140818577,-0.042725,-0.101807,0.990234,2.685547,0.701904,-0.823975,8.203125,12.744141,7.324219
3143803194,-0.044189,-0.105469,0.996582,2.716064,0.549316,-0.823975,8.203125,12.744141,7.324219
3146757043,-0.042725,-0.101807,1.001221,2.746582,0.701904,-0.885010,8.203125,12.744141,7.324219
3149655507,-0.042480,-0.101074,0.991211,2.899170,0.427246,-0.823975,8.203125,12.451172,7.177734
3152379201,-0.039063,-0.105957,0.993408,2.624512,0.823975,-1.037598,8.203125,12.451172,7.177734
3154928947,-0.041504,-0.098877,0.994629,2.655029,0.396729,-0.671387,8.203125,12.451172,7.177734
3157759308,-0.043701,-0.101318,0.996094,2.685547,0.701904,-0.976563,7.983398,12.524414,7.690430
3160659824,-0.039307,-0.100586,0.996826,2.502441,0.579834,-0.823975,7.983398,12.524414,7.690430
3163110697,-0.046387,-0.103271,0.991455,2.838135,0.549316,-0.854492,7.983398,12.524414,7.690430
3165966495,-0.044189,-0.101563,0.998535,2.563477,0.671387,-0.732422,7.983398,12.524414,7.690430
3168464138,-0.035889,-0.104248,1.000000,2.838135,0.335693,-0.640869,7.983398,12.524414,7.690430
3171063935,-0.045410,-0.105713,1.003662,2.563477,0.518799,-0.976563,7.983398,12.524414,7.690430
3174533066,-0.037109,-0.101563,0.993164,2.899170,0.518799,-0.793457,7.983398,12.524414,7.690430
3177480350,-0.041016,-0.100586,0.999023,2.655029,0.640869,-0.823975,8.642578,12.597656,7.910156
3180279532,-0.042725,-0.101074,0.995850,2.868652,0.732422,-1.037598,8.642578,12.597656,7.910156
3182827637,-0.042480,-0.100342,0.994873,2.655029,0.701904,-0.732422,8.642578,12.597656,7.910156
3185343741,-0.041992,-0.097168,0.995850,2.716064,0.671387,-0.732422,8.642578,12.597656,7.910156
3187827846,-0.045898,-0.102295,0.993164,2.838135,0.488281,-0.823975,8.642578,12.597656,7.910156
3190439540,-0.046143,-0.103760,0.996094,2.502441,0.274658,-0.823975,8.642578,12.597656,7.910156
3192961799,-0.042725,-0.099121,0.997314,2.685547,0.488281,-0.915527,8.642578,12.597656,7.910156
3195824981,-0.047119,-0.104004,0.992920,2.380371,0.488281,-0.793457,8.642578,12.597656,7.910156
3198516265,-0.042725,-0.102539,1.000977,2.807617,0.488281,-1.007080,8.276367,13.256836,6.811523
3201218216,-0.043213,-0.102539,0.997559,2.655029,0.732422,-0.823975,8.276367,13.256836,6.811523
3204217193,-0.040527,-0.100586,0.993164,2.655029,0.732422,-0.701904,8.276367,13.256836,6.811523
3206967964,-0.042236,-0.097412,0.999023,2.532959,0.701904,-1.037598,8.276367,13.256836,6.811523
3209926326,-0.041992,-0.101563,0.999512,2.502441,0.762939,-0.732422,8.276367,13.256836,6.811523
3212874020,-0.043213,-0.103516,0.995850,2.807617,0.244141,-0.823975,8.276367,13.256836,6.811523
3215494740,-0.043945,-0.102051,1.000732,2.258301,0.640869,-0.915527,8.276367,13.256836,6.811523
3218008384,-0.046143,-0.102539,1.005127,2.655029,0.457764,-0.885010,7.836914,13.256836,7.104492
3220485514,-0.043213,-0.099854,0.999268,2.716064,0.518799,-1.098633,7.836914,13.256836,7.104492
3223051670,-0.042236,-0.103516,1.000488,2.502441,0.671387,-0.518799,7.836914,13.256836,7.104492
3226047775,-0.043457,-0.102051,0.998047,2.502441,0.579834,-0.823975,7.836914,13.256836,7.104492
3228547469,-0.043701,-0.102783,0.997314,2.471924,0.823975,-0.701904,7.836914,13.256836,7.104492
3231048394,-0.041260,-0.103760,1.001953,2.593994,0.701904,-0.732422,7.836914,13.256836,7.104492
3233616601,-0.043213,-0.100586,0.991455,2.502441,0.518799,-0.701904,7.836914,13.256836,7.104492
3236570860,-0.041260,-0.101563,0.999756,2.746582,0.610352,-0.915527,7.836914,13.256836,7.104492
3239215375,-0.041016,-0.103027,0.995361,2.624512,0.640869,-0.793457,8.569336,13.110352,7.104492
3242271788,-0.042725,-0.101807,1.000244,2.532959,0.549316,-0.762939,8.569336,13.110352,7.104492
3244933124,-0.041748,-0.099365,0.997559,2.716064,0.518799,-0.976563,8.569336,13.110352,7.104492
3247750767,-0.040283,-0.097900,0.999023,2.746582,0.671387,-0.701904,8.569336,13.110352,7.104492
3250551590,-0.044189,-0.101563,0.996338,2.563477,0.549316,-0.823975,8.569336,13.110352,7.104492
3253520208,-0.041260,-0.101074,1.000000,2.380371,0.762939,-1.007080,8.569336,13.110352,7.104492
3256414979,-0.041992,-0.101074,0.993896,2.685547,0.488281,-1.007080,8.569336,13.110352,7.104492
3258871186,-0.036621,-0.100586,1.000000,2.593994,0.610352,-0.671387,8.349609,12.451172,7.177734
3261443496,-0.042236,-0.100098,1.001465,2.410889,0.549316,-0.854492,8.349609,12.451172,7.177734
3264421550,-0.041016,-0.100586,1.000732,2.410889,0.518799,-0.946045,8.349609,12.451172,7.177734
3266924116,-0.041748,-0.099609,0.999268,2.746582,0.549316,-0.854492,8.349609,12.451172,7.177734
3269404528,-0.041016,-0.102539,0.993408,2.655029,0.549316,-0.946045,8.349609,12.451172,7.177734
3272005146,-0.044434,-0.099854,0.995361,2.288818,0.549316,-0.640869,8.349609,12.451172,7.177734
3274508532,-0.040771,-0.096924,0.999756,2.716064,0.823975,-0.885010,8.349609,12.451172,7.177734
3276957355,-0.047119,-0.101563,0.997314,2.685547,0.640869,-0.579834,8.056641,13.183594,7.177734
3279457049,-0.041016,-0.099121,0.989746,2.777100,0.579834,-0.885010,8.056641,13.183594,7.177734
3281981359,-0.041748,-0.101318,0.991943,2.471924,0.549316,-0.854492,8.056641,13.183594,7.177734
3284808438,-0.042725,-0.103516,0.994141,2.655029,0.518799,-0.732422,8.056641,13.183594,7.177734
3287328235,-0.041992,-0.102539,0.996094,2.746582,0.946045,-1.037598,8.056641,13.183594,7.177734
3289813571,-0.042969,-0.105225,0.994873,2.655029,0.549316,-0.823975,8.056641,13.183594,7.177734
3292322701,-0.041504,-0.099365,0.999756,2.807617,0.396729,-0.549316,8.056641,13.183594,7.177734
3295141575,-0.044434,-0.103027,0.991211,2.685547,0.732422,-0.915527,8.056641,13.183594,7.177734
3298133167,-0.043945,-0.099365,1.002197,2.624512,0.701904,-0.915527,8.203125,13.623047,7.324219
3301045580,-0.044922,-0.104736,1.002197,2.502441,0.396729,-0.885010,8.203125,13.623047,7.324219
3304003941,-0.042969,-0.099121,0.997803,2.532959,0.457764,-0.854492,8.203125,13.623047,7.324219
3306770302,-0.042969,-0.103760,0.990967,3.051758,0.488281,-0.976563,7.617188,13.476563,7.617188
3309809484,-0.040039,-0.100098,0.998535,2.319336,0.549316,-1.037598,7.617188,13.476563,7.617188
3312311230,-0.039307,-0.104004,0.991455,2.838135,0.579834,-0.946045,7.617188,13.476563,7.617188
3314808873,-0.038574,-0.102051,0.994141,2.624512,0.488281,-1.220703,7.617188,13.476563,7.617188
3317320465,-0.041992,-0.105469,0.996094,2.502441,0.488281,-0.732422,8.496094,12.597656,7.763672
3319768877,-0.044434,-0.103271,1.000000,2.807617,0.732422,-0.701904,8.496094,12.597656,7.763672
3322791649,-0.043457,-0.103516,0.998047,2.807617,0.518799,-0.762939,8.496094,12.597656,7.763672
3325295856,-0.043457,-0.101318,0.997803,2.655029,0.579834,-0.793457,8.496094,12.597656,7.763672
3328266525,-0.043701,-0.101563,0.994385,2.868652,0.640869,-0.854492,7.763672,13.183594,7.324219
3330792476,-0.042236,-0.101563,0.986816,2.624512,0.457764,-0.793457,7.763672,13.183594,7.324219
3333817299,-0.041748,-0.100342,0.987549,2.746582,0.518799,-0.885010,7.763672,13.183594,7.324219
3336319865,-0.049805,-0.100830,0.997070,2.685547,0.518799,-0.732422,8.203125,12.744141,7.324219
3338869201,-0.042236,-0.104980,1.003174,2.593994,0.640869,-0.671387,8.203125,12.744141,7.324219
3341360690,-0.043213,-0.102783,0.999512,2.807617,0.335693,-0.823975,8.203125,12.744141,7.324219
3344292795,-0.039551,-0.101074,0.995605,2.868652,0.701904,-0.976563,8.203125,12.744141,7.324219
3346784694,-0.043701,-0.099854,1.000000,2.716064,0.701904,-0.946045,8.276367,13.256836,6.958008
3349286030,-0.042725,-0.101563,0.998047,2.685547,0.732422,-0.793457,8.276367,13.256836,6.958008
