
Run: 1 Realtime: 0 Accel sens: 8 Gyro sens: 1000

Time Captured,Accel X,Accel Y,Accel Z,Gyro X,Gyro Y,Gyro Z,Magn X,Magn Y,Magn Z
2699079,-0.970703,0.019043,-0.257568,2.593994,0.427246,-0.610352,12.670898,27.465820,-9.741211
5199183,-0.965576,0.018799,-0.261719,2.716064,0.549316,-0.518799,12.304688,27.392578,-9.521484
7694775,-0.962158,0.022705,-0.263916,2.929688,0.488281,-0.518799,12.304688,27.392578,-9.521484
10272828,-0.963867,0.021729,-0.266846,2.685547,0.701904,-0.640869,12.304688,27.392578,-9.521484
13145856,-0.970215,0.021484,-0.265869,2.655029,0.518799,-0.823975,12.304688,27.392578,-9.521484
15692730,-0.965576,0.023438,-0.265381,2.807617,0.488281,-0.457764,12.304688,27.392578,-9.521484
18144014,-0.965820,0.024170,-0.260986,2.532959,0.823975,-0.854492,12.304688,27.392578,-9.521484
20645350,-0.967529,0.018799,-0.268311,2.777100,0.396729,-0.579834,12.304688,27.392578,-9.521484
23344429,-0.974121,0.020264,-0.260498,2.441406,0.122070,-0.610352,12.304688,27.392578,-9.521484
25844534,-0.969727,0.020996,-0.261475,2.563477,0.488281,-0.549316,13.183594,26.806641,-9.375000
28406177,-0.966064,0.019775,-0.264160,2.410889,-0.030518,-0.366211,13.183594,26.806641,-9.375000
30893974,-0.965576,0.024902,-0.260010,2.655029,0.457764,-0.579834,13.183594,26.806641,-9.375000
33792848,-0.970703,0.018311,-0.266113,2.685547,0.030518,-0.488281,13.183594,26.806641,-9.375000
36294183,-0.972900,0.021484,-0.263672,2.624512,0.396729,-0.366211,13.183594,26.806641,-9.375000
38792236,-0.968018,0.018799,-0.261230,2.838135,0.122070,-0.549316,13.183594,26.806641,-9.375000
41298495,-0.967041,0.010010,-0.279297,2.990723,0.396729,-0.335693,13.183594,26.806641,-9.375000
43804343,-0.942383,-0.006836,-0.309326,3.967285,0.823975,-0.152588,12.524414,27.172852,-10.327148
46795935,-0.942627,-0.009033,-0.351563,6.072998,1.556396,0.335693,12.524414,27.172852,-10.327148
49694399,-0.981934,0.006348,-0.303711,7.110596,1.495361,0.305176,12.524414,27.172852,-10.327148
52222401,-0.974365,0.011230,-0.285400,7.324219,0.457764,0.610352,12.524414,27.172852,-10.327148
55246814,-0.965332,0.002441,-0.276855,7.507324,0.518799,0.793457,12.524414,27.172852,-10.327148
58278611,-0.961670,-0.013916,-0.270996,7.873535,0.823975,0.793457,12.524414,27.172852,-10.327148
61277998,-0.973633,-0.024170,-0.271484,8.575439,0.946045,1.129150,12.524414,27.172852,-10.327148
64228155,-0.973877,-0.028809,-0.263672,9.643555,0.671387,1.220703,12.744141,26.953125,-10.253906
66802926,-0.971191,-0.034912,-0.274902,10.589600,0.610352,1.678467,12.744141,26.953125,-10.253906
69747749,-0.968018,-0.033447,-0.269775,11.383057,0.335693,1.586914,12.744141,26.953125,-10.253906
72247443,-0.973877,-0.042236,-0.277100,12.359619,0.366211,2.258301,12.744141,26.953125,-10.253906
74793497,-0.976807,-0.044189,-0.283203,13.183594,0.122070,2.563477,12.744141,26.953125,-10.253906
77766217,-0.984131,-0.042480,-0.292236,14.190674,0.000000,2.685547,12.744141,26.953125,-10.253906
80264270,-0.982422,-0.037842,-0.288086,14.862061,-0.274658,3.204346,12.744141,26.953125,-10.253906
83261606,-0.979736,-0.036133,-0.290039,16.143799,-0.915527,3.814697,12.744141,26.953125,-10.253906
85838839,-0.984619,-0.034424,-0.306885,17.028809,-1.403809,3.997803,12.011719,27.246094,-10.107422
88805816,-0.987061,-0.034668,-0.306641,17.517090,-1.586914,4.577637,12.011719,27.246094,-10.107422
91308792,-0.999756,-0.016113,-0.315918,18.341064,-2.563477,4.913330,12.011719,27.246094,-10.107422
93842128,-0.999268,-0.003906,-0.314209,18.829346,-2.868652,5.523682,12.011719,27.246094,-10.107422
96330745,-1.008545,0.009766,-0.312744,18.707275,-3.967285,6.011963,12.011719,27.246094,-10.107422
98814850,-1.013916,0.016113,-0.311768,19.042969,-4.333496,6.683350,12.011719,27.246094,-10.107422
101313313,-1.023926,0.032227,-0.315186,19.104004,-5.249023,7.537842,12.011719,27.246094,-10.107422
103901213,-1.037109,0.044922,-0.321777,18.463135,-6.225586,8.117676,12.011719,27.246094,-10.400391
106847677,-1.041748,0.062012,-0.312500,18.493652,-7.263184,9.063721,12.011719,27.246094,-10.400391
109365423,-1.065918,0.074219,-0.318604,17.730713,-8.331299,10.253906,12.011719,27.246094,-10.400391
112366040,-1.076660,0.082031,-0.317627,17.120361,-9.796143,11.474609,12.011719,27.246094,-10.400391
114863683,-1.103271,0.099854,-0.335938,16.540527,-10.833740,12.908936,12.011719,27.246094,-10.400391
117886045,-1.130371,0.107422,-0.355225,16.204834,-11.627197,14.404297,12.011719,27.246094,-10.400391
120366047,-1.157715,0.108643,-0.361084,15.655518,-12.542725,16.021729,12.011719,27.246094,-10.400391
122869023,-1.169189,0.096924,-0.377441,15.411377,-12.878418,17.852783,12.011719,27.246094,-10.400391
125427795,-1.194824,0.097412,-0.406494,15.411377,-12.725830,19.042969,11.791992,28.198242,-10.034180
128903900,-1.210693,0.098145,-0.427979,14.953613,-12.664795,20.507813,11.791992,28.198242,-10.034180
131441748,-1.227539,0.089111,-0.474365,13.793945,-12.512207,21.392822,11.791992,28.198242,-10.034180
134923187,-1.235107,0.086426,-0.485840,11.810303,-12.176514,21.789551,11.791992,28.198242,-10.034180
137422471,-1.237305,0.069580,-0.528320,8.758545,-11.627197,21.942139,11.791992,28.198242,-10.034180
140475192,-1.238281,0.060303,-0.543701,6.286621,-11.016846,21.972656,11.791992,28.198242,-10.034180
143568938,-1.243164,0.040039,-0.569824,2.441406,-10.711670,21.270752,11.791992,28.198242,-10.034180
146484222,-1.237549,0.007080,-0.583008,-0.152588,-9.338379,20.446777,12.304688,27.392578,-10.546875
149492225,-1.275146,-0.012451,-0.595703,-3.051758,-8.880615,19.348145,12.304688,27.392578,-10.546875
152487099,-1.277588,-0.042969,-0.610352,-5.279541,-7.507324,18.463135,12.304688,27.392578,-10.546875
154983511,-1.281006,-0.067383,-0.627441,-6.408691,-6.500244,16.815186,12.377930,27.172852,-10.327148
157477462,-1.296143,-0.077148,-0.632080,-7.568359,-5.126953,16.296387,12.377930,27.172852,-10.327148
159991105,-1.294678,-0.092529,-0.637695,-7.537842,-4.241943,14.831543,12.377930,27.172852,-10.327148
162508851,-1.304932,-0.112305,-0.633789,-7.415771,-3.234863,14.099121,12.377930,27.172852,-10.327148
164980237,-1.306152,-0.121582,-0.625488,-6.591797,-2.197266,13.214111,11.645508,28.051758,-10.473633
167529983,-1.304688,-0.120361,-0.626221,-5.828857,-1.373291,11.871338,11.645508,28.051758,-10.473633
170512550,-1.318848,-0.125488,-0.630859,-5.004883,-0.640869,10.955811,11.645508,28.051758,-10.473633
173058193,-1.328613,-0.127930,-0.617432,-4.150391,-0.030518,9.613037,11.645508,28.051758,-10.473633
175511528,-1.336426,-0.124023,-0.608887,-3.570557,-0.091553,8.117676,11.645508,27.465820,-10.473633
178059633,-1.337158,-0.114990,-0.596191,-2.868652,0.122070,7.385254,11.645508,27.465820,-10.473633
180558917,-1.344482,-0.111572,-0.583740,-2.777100,-0.152588,5.950928,11.645508,27.465820,-10.473633
183063945,-1.353516,-0.108398,-0.571777,-2.288818,-0.305176,4.974365,11.499023,28.051758,-10.327148
185561177,-1.362793,-0.106445,-0.563477,-1.983643,-0.671387,4.028320,11.499023,28.051758,-10.327148
188057590,-1.373779,-0.103271,-0.551270,-1.373291,-1.342773,3.479004,11.499023,28.051758,-10.327148
190559335,-1.377197,-0.099609,-0.540771,-0.946045,-2.349854,2.807617,11.499023,28.051758,-10.327148
193060671,-1.385986,-0.091064,-0.531738,-0.396729,-3.601074,2.105713,12.011719,27.832031,-10.327148
195607134,-1.391357,-0.083740,-0.516357,0.579834,-4.974365,1.770020,12.011719,27.832031,-9.960938
198060880,-1.396729,-0.077148,-0.506592,1.342773,-6.500244,1.586914,12.011719,27.832031,-9.960938
201118113,-1.403320,-0.063965,-0.488770,1.922607,-8.239746,1.495361,12.011719,27.832031,-9.960938
203614526,-1.408936,-0.052734,-0.471680,2.563477,-10.711670,1.708984,11.645508,27.758789,-10.034180
206613913,-1.412842,-0.051270,-0.467529,3.784180,-12.695313,1.708984,11.645508,27.758789,-10.034180
209111556,-1.411133,-0.040039,-0.475098,4.760742,-14.892578,2.380371,11.645508,27.758789,-10.034180
211614942,-1.407471,-0.038330,-0.475342,5.401611,-16.723633,2.593994,11.645508,27.758789,-10.034180
214118739,-1.403076,-0.035156,-0.489746,6.164551,-18.615723,3.234863,12.304688,27.832031,-10.253906
217153819,-1.396240,-0.018555,-0.491211,6.134033,-20.172119,3.753662,12.304688,27.832031,-10.253906
219651462,-1.396240,-0.022705,-0.514160,7.690430,-21.636963,4.638672,12.304688,27.832031,-10.253906
222152797,-1.392334,-0.020508,-0.525146,7.751465,-22.613525,4.669189,12.304688,27.832031,-10.253906
224651261,-1.378662,-0.026367,-0.551758,8.636475,-23.498535,5.340576,12.377930,27.612305,-9.594727
227157109,-1.364502,-0.023926,-0.559570,9.033203,-23.742676,6.164551,12.377930,27.612305,-9.594727
229655573,-1.347412,-0.020020,-0.580566,9.918213,-23.895264,6.652832,12.377930,27.612305,-9.594727
232154036,-1.338867,-0.020508,-0.597412,10.223389,-23.742676,7.080078,12.377930,27.612305,-9.594727
234655782,-1.328369,-0.018799,-0.610596,10.803223,-23.651123,7.781982,11.352539,27.465820,-9.741211
237204297,-1.322510,-0.012451,-0.617920,10.620117,-23.620605,8.331299,11.352539,27.465820,-9.741211
239704812,-1.313232,0.002686,-0.627441,10.467529,-22.796631,8.697510,11.352539,27.465820,-9.741211
242204506,-1.309326,0.018555,-0.636719,9.979248,-22.308350,9.124756,11.352539,27.465820,-9.741211
244757123,-1.301514,0.034424,-0.643799,8.514404,-21.759033,9.155273,11.352539,27.465820,-9.741211
247214561,-1.295654,0.055176,-0.636719,7.019043,-20.904541,9.277344,11.352539,27.465820,-9.741211
249756102,-1.295410,0.061523,-0.645264,5.889893,-20.355225,9.307861,11.352539,27.465820,-9.741211
252254565,-1.292969,0.061768,-0.629639,3.479004,-19.317627,9.338379,11.352539,27.465820,-9.741211
254753850,-1.287598,0.067871,-0.625977,2.410889,-19.042969,9.094238,11.645508,27.465820,-9.448242
257250262,-1.281982,0.076416,-0.624268,0.122070,-17.852783,8.911133,11.645508,27.465820,-9.448242
259828315,-1.269287,0.077393,-0.622559,-1.190186,-17.059326,8.636475,11.645508,27.465820,-9.448242
262755907,-1.256836,0.087402,-0.610596,-3.387451,-16.021729,8.361816,11.645508,27.465820,-9.448242
265257653,-1.249756,0.084229,-0.616699,-5.096436,-15.167236,8.178711,11.645508,27.465820,-9.448242
267754886,-1.241211,0.085449,-0.622559,-6.500244,-14.007568,7.965088,11.645508,27.465820,-9.448242
270302580,-1.232178,0.087646,-0.620850,-8.270264,-13.244629,7.354736,11.645508,27.465820,-9.448242
272802685,-1.222656,0.093506,-0.634277,-9.429932,-12.664795,7.263184,11.645508,28.051758,-9.594727
275303610,-1.217041,0.095215,-0.640381,-10.803223,-11.413574,7.049561,11.645508,28.051758,-9.594727
277811920,-1.210693,0.095215,-0.653809,-12.512207,-10.375977,6.774902,11.645508,28.051758,-9.594727
280306691,-1.205322,0.096680,-0.664307,-13.458252,-9.429932,6.622314,11.645508,28.051758,-9.594727
282807616,-1.203613,0.096191,-0.669678,-14.556885,-7.995605,6.500244,11.645508,28.051758,-9.594727
285306080,-1.206543,0.097168,-0.671387,-15.838623,-6.958008,6.072998,11.645508,28.051758,-9.594727
287802902,-1.201172,0.099609,-0.691162,-16.448975,-5.676270,5.950928,11.645508,28.051758,-9.594727
290302597,-1.204834,0.103027,-0.683105,-17.791748,-4.699707,5.676270,11.645508,28.051758,-9.594727
292855214,-1.202881,0.114990,-0.693359,-18.920898,-3.906250,5.249023,11.132813,27.832031,-9.960938
295357780,-1.215088,0.128662,-0.689209,-20.751953,-3.540039,4.730225,11.132813,27.832031,-9.960938
298344860,-1.218750,0.133545,-0.688477,-22.613525,-3.601074,4.821777,11.132813,27.832031,-9.960938
300847426,-1.230225,0.152832,-0.676514,-24.810791,-3.479004,4.425049,11.132813,27.832031,-9.960938
303856659,-1.249023,0.159668,-0.664551,-26.824951,-4.150391,3.814697,11.132813,27.832031,-9.960938
306353071,-1.257813,0.159180,-0.652588,-29.113770,-4.638672,3.509521,11.132813,27.832031,-9.960938
308860971,-1.258545,0.158691,-0.643311,-31.250000,-6.347656,2.929688,11.132813,27.832031,-9.960938
311383640,-1.266846,0.155029,-0.633789,-32.928467,-6.927490,2.593994,11.132813,27.832031,-9.960938
314383027,-1.263672,0.142090,-0.624023,-34.301758,-8.636475,2.227783,11.572266,28.271484,-9.814453
316928670,-1.260010,0.119629,-0.617432,-35.400391,-10.253906,1.922607,11.572266,28.271484,-9.814453
319426723,-1.258301,0.106201,-0.622559,-36.193848,-11.840820,1.312256,11.572266,28.271484,-9.814453
322430213,-1.247559,0.091553,-0.607666,-36.956787,-13.336182,0.885010,11.572266,28.271484,-9.814453
324931138,-1.231201,0.082764,-0.593018,-37.445068,-15.106201,0.823975,11.572266,28.271484,-9.814453
327982628,-1.221924,0.078369,-0.594727,-37.689209,-16.387939,-0.152588,11.572266,28.271484,-9.814453
330417501,-1.218994,0.069336,-0.591553,-38.391113,-18.310547,-0.427246,11.572266,28.271484,-9.814453
332964375,-1.209473,0.074219,-0.583008,-38.726807,-19.714355,-1.403809,12.231445,28.051758,-9.741211
335466121,-1.203125,0.073975,-0.574951,-39.123535,-20.874023,-1.617432,12.231445,28.051758,-9.741211
337967046,-1.194824,0.078857,-0.576416,-39.794922,-21.911621,-2.258301,12.231445,28.051758,-9.741211
340494638,-1.175049,0.082764,-0.563721,-40.252686,-23.162842,-2.807617,12.231445,28.051758,-9.741211
343478845,-1.165039,0.077637,-0.572266,-40.313721,-24.322510,-3.570557,12.231445,28.051758,-9.741211
346033514,-1.139404,0.080322,-0.566162,-40.832520,-25.390625,-3.540039,12.231445,28.051758,-9.741211
349020183,-1.122559,0.079102,-0.584717,-40.496826,-26.000977,-4.150391,12.231445,28.051758,-9.741211
351510442,-1.104980,0.090088,-0.606201,-40.557861,-26.580811,-4.364014,12.231445,28.051758,-9.741211
354009726,-1.099121,0.096436,-0.616943,-40.466309,-27.679443,-4.913330,10.986328,28.125000,-9.667969
356509830,-1.084717,0.108398,-0.632324,-40.618896,-27.679443,-5.187988,10.986328,28.125000,-9.667969
359006653,-1.075195,0.122803,-0.644531,-41.015625,-27.557373,-5.981445,10.986328,28.125000,-9.667969
362011373,-1.068604,0.143066,-0.664307,-42.358398,-27.343750,-6.683350,10.986328,28.125000,-9.667969
364513119,-1.068848,0.158447,-0.675781,-44.281006,-27.038574,-7.904053,10.986328,28.125000,-9.667969
367009531,-1.061768,0.161621,-0.681885,-47.302246,-26.336670,-8.941650,10.986328,28.125000,-9.667969
369555175,-1.062256,0.159180,-0.682129,-49.530029,-25.573730,-10.437012,10.986328,28.125000,-9.667969
372056510,-1.061523,0.156006,-0.681152,-52.490234,-24.658203,-11.657715,11.499023,28.125000,-9.667969
374561538,-1.061768,0.146484,-0.673096,-54.992676,-24.047852,-13.183594,11.499023,27.905273,-9.448242
377132617,-1.064941,0.131104,-0.666504,-57.891846,-23.437500,-14.160156,11.499023,27.905273,-9.448242
380047491,-1.066895,0.120361,-0.652100,-59.997559,-22.521973,-15.411377,11.499023,27.905273,-9.448242
382601339,-1.063232,0.096924,-0.635498,-62.591553,-22.491455,-16.632080,11.499023,27.905273,-9.448242
385097751,-1.059082,0.081055,-0.623291,-64.636230,-22.552490,-17.333984,11.499023,27.905273,-9.448242
387599497,-1.052002,0.052246,-0.594238,-65.307617,-22.430420,-18.249512,11.499023,27.905273,-9.448242
390095909,-1.055908,0.038574,-0.586426,-65.856934,-22.491455,-18.341064,11.499023,27.905273,-9.448242
392600937,-1.050049,0.018799,-0.556885,-65.612793,-22.857666,-18.676758,12.084961,28.637695,-9.155273
395105554,-1.055176,0.012451,-0.524170,-65.124512,-23.315430,-18.463135,12.084961,28.637695,-9.155273
397617146,-1.058838,-0.001465,-0.501709,-64.575195,-24.505615,-18.310547,12.084961,28.637695,-9.155273
400639097,-1.058838,0.004150,-0.476807,-63.690186,-24.810791,-18.737793,12.084961,28.637695,-9.155273
403656536,-1.073975,-0.009033,-0.438965,-62.713623,-26.550293,-18.463135,12.084961,28.637695,-9.155273
406643205,-1.078369,-0.005859,-0.406250,-61.614990,-27.862549,-18.646240,12.084961,28.637695,-9.155273
409093258,-1.069092,0.001221,-0.382324,-60.913086,-30.090332,-19.378662,12.084961,28.637695,-9.155273
412148850,-1.061768,-0.000244,-0.347656,-60.668945,-32.501221,-20.111084,12.084961,28.637695,-9.155273
415105571,-1.045410,-0.005615,-0.326660,-60.760498,-34.484863,-20.904541,11.865234,28.271484,-9.082031
418049984,-1.033936,-0.004639,-0.299316,-61.065674,-37.719727,-21.972656,11.865234,28.271484,-9.082031
420900447,-1.024414,0.010742,-0.265625,-61.401367,-39.825439,-23.132324,11.865234,28.271484,-9.082031
423797270,-1.018799,-0.010986,-0.265137,-61.096191,-43.212891,-24.353027,11.865234,28.271484,-9.082031
426301067,-1.001953,-0.020020,-0.245117,-60.791016,-45.349121,-25.543213,11.865234,28.271484,-9.082031
428802403,-0.984863,-0.039063,-0.228271,-59.173584,-48.126221,-26.977539,11.865234,28.271484,-9.082031
431298815,-0.965576,-0.051758,-0.216797,-58.074951,-49.591064,-27.496338,11.865234,28.271484,-9.082031
433849791,-0.945068,-0.070313,-0.207764,-55.450439,-51.605225,-28.442383,12.084961,28.344727,-9.594727
436397896,-0.938232,-0.080322,-0.215820,-52.856445,-52.886963,-29.174805,12.084961,28.344727,-9.594727
439248360,-0.921387,-0.091064,-0.199463,-50.537109,-54.321289,-29.846191,12.084961,28.344727,-9.594727
441697182,-0.912354,-0.108154,-0.190918,-46.630859,-56.274414,-30.853271,12.084961,28.344727,-9.594727
444399544,-0.902588,-0.110596,-0.199707,-44.067383,-55.572510,-31.188965,12.084961,28.344727,-9.594727
446898417,-0.894775,-0.101563,-0.177734,-40.893555,-59.387207,-32.348633,12.084961,28.344727,-9.594727
449401394,-0.883545,-0.102783,-0.180176,-38.757324,-58.776855,-33.050537,12.084961,28.344727,-9.594727
452003242,-0.886475,-0.119873,-0.145752,-35.888672,-61.096191,-33.996582,12.597656,27.832031,-8.496094
454701911,-0.879883,-0.120117,-0.137207,-32.836914,-63.476563,-34.698486,12.597656,27.832031,-8.496094
457268888,-0.879150,-0.113281,-0.122559,-30.517578,-63.659668,-35.552979,12.597656,27.832031,-8.496094
459906838,-0.880127,-0.112549,-0.109131,-28.472900,-65.612793,-36.651611,12.597656,27.832031,-8.496094
462407764,-0.882568,-0.107422,-0.096680,-25.848389,-66.406250,-37.841797,12.597656,27.832031,-8.496094
464945202,-0.890869,-0.105957,-0.089355,-23.742676,-68.298340,-38.787842,12.597656,27.832031,-8.496094
467909717,-0.883789,-0.100342,-0.086670,-21.911621,-69.091797,-40.100098,12.597656,27.832031,-8.496094
470435257,-0.886230,-0.098877,-0.083740,-19.989014,-70.617676,-41.290283,12.597656,27.832031,-8.496094
473016593,-0.876221,-0.087402,-0.085938,-18.341064,-71.929932,-42.449951,12.524414,27.319336,-7.543945
475938852,-0.866699,-0.073730,-0.088379,-16.937256,-73.120117,-43.640137,12.524414,27.319336,-7.543945
478491879,-0.855469,-0.070313,-0.084961,-15.930176,-74.981689,-44.677734,12.524414,27.319336,-7.543945
480956292,-0.845947,-0.061523,-0.099121,-15.197754,-75.897217,-45.562744,12.524414,27.319336,-7.543945
483458858,-0.839600,-0.058594,-0.100586,-14.038086,-76.538086,-46.081543,12.597656,28.271484,-7.763672
486062347,-0.827148,-0.056396,-0.108887,-13.153076,-77.392578,-46.752930,12.597656,28.271484,-7.763672
489037529,-0.819336,-0.050293,-0.107910,-11.932373,-78.002930,-46.905518,12.597656,28.271484,-7.763672
492030762,-0.807129,-0.043945,-0.107666,-10.803223,-78.063965,-47.454834,13.110352,27.612305,-6.958008
495566355,-0.799561,-0.040771,-0.102539,-9.338379,-78.094482,-48.004150,13.110352,27.612305,-6.958008
498551793,-0.791504,-0.040283,-0.102295,-7.598877,-78.125000,-48.309326,13.110352,27.612305,-6.958008
501491693,-0.775635,-0.037598,-0.098633,-6.652832,-77.667236,-48.370361,13.110352,27.612305,-6.958008
504009028,-0.768555,-0.030762,-0.089844,-5.157471,-76.965332,-48.309326,13.476563,27.832031,-6.738281
506574364,-0.766846,-0.025391,-0.082031,-4.333496,-77.087402,-48.645020,13.476563,27.832031,-6.738281
509570059,-0.758057,-0.016357,-0.057129,-3.204346,-76.568604,-48.095703,13.476563,27.832031,-6.738281
512041035,-0.759766,-0.013428,-0.043701,-2.258301,-76.782227,-47.790527,13.696289,27.465820,-6.518555
514545652,-0.765137,-0.006104,-0.020996,-0.854492,-76.995850,-47.210693,13.696289,27.465820,-6.518555
517119603,-0.769287,-0.003418,-0.000488,-0.061035,-76.965332,-46.875000,13.696289,27.465820,-6.518555
520068119,-0.775146,0.003418,0.021729,0.915527,-77.331543,-45.989990,13.696289,27.465820,-6.518555
523106070,-0.781250,0.018555,0.052002,2.380371,-77.606201,-45.471191,13.696289,27.612305,-6.665039
525608636,-0.784424,0.030273,0.080322,3.021240,-78.094482,-44.677734,13.696289,27.612305,-6.665039
528605972,-0.788086,0.033691,0.098877,4.119873,-79.040527,-43.670654,13.696289,27.612305,-6.665039
531083102,-0.782227,0.040039,0.129150,4.882813,-80.413818,-42.663574,13.696289,27.612305,-6.665039
534144028,-0.776367,0.054932,0.149414,5.676270,-81.451416,-41.900635,13.916016,27.539063,-5.566406
537152440,-0.776611,0.068848,0.166992,5.828857,-83.007813,-41.046143,13.916016,27.539063,-5.566406
540114494,-0.769531,0.072754,0.183838,5.920410,-84.655762,-39.978027,13.916016,27.539063,-5.566406
543024445,-0.765381,0.071045,0.195801,6.469727,-86.425781,-39.031982,14.062500,27.099609,-6.152344
545972550,-0.765137,0.071045,0.193848,6.713867,-88.043213,-38.146973,14.062500,27.099609,-6.152344
548724142,-0.759521,0.062744,0.204346,7.232666,-89.141846,-36.834717,14.062500,27.099609,-6.152344
551234093,-0.752197,0.055176,0.204834,7.812500,-90.454102,-35.736084,14.355469,27.099609,-5.273438
554240454,-0.741455,0.055420,0.218994,8.483887,-90.820313,-34.698486,14.355469,27.099609,-5.273438
556738918,-0.730469,0.056885,0.215332,8.850098,-91.491699,-33.508301,14.355469,27.099609,-5.273438
559245587,-0.719971,0.059326,0.228027,9.429932,-92.010498,-32.745361,14.355469,27.099609,-5.273438
562241281,-0.706543,0.053467,0.226074,9.521484,-92.193604,-31.829834,13.989258,26.879883,-4.907227
564740976,-0.695557,0.049561,0.227051,10.131836,-92.224121,-30.548096,13.989258,26.879883,-4.907227
567772773,-0.686768,0.045166,0.235352,10.772705,-92.041016,-30.181885,13.989258,26.879883,-4.907227
570290108,-0.679688,0.044922,0.236084,10.986328,-91.491699,-29.449463,13.989258,26.879883,-4.907227
572791034,-0.666748,0.037598,0.232178,11.047363,-90.942383,-28.686523,13.989258,26.879883,-4.907227
575291959,-0.658691,0.043457,0.236328,10.467529,-90.301514,-28.472900,13.989258,26.879883,-4.907227
577783448,-0.645264,0.041260,0.225586,10.650635,-89.477539,-28.106689,13.989258,26.879883,-4.907227
580280270,-0.638916,0.038574,0.222900,10.406494,-88.562012,-27.893066,13.989258,26.879883,-4.907227
583278837,-0.626221,0.036621,0.214111,9.857178,-87.341309,-27.496338,14.062500,26.220703,-3.808594
586228993,-0.621094,0.028076,0.219727,9.307861,-85.327148,-27.832031,14.062500,26.220703,-3.808594
588678636,-0.614990,0.032227,0.212891,8.666992,-83.801270,-27.526855,14.062500,26.220703,-3.808594
591276382,-0.614990,0.026367,0.212646,8.117676,-82.489014,-27.618408,14.062500,26.220703,-3.808594
593910641,-0.608154,0.031494,0.206787,7.476807,-80.718994,-27.648926,14.062500,26.220703,-3.808594
596810746,-0.610107,0.033447,0.213623,6.774902,-78.491211,-27.557373,14.062500,26.220703,-3.808594
599771158,-0.607422,0.034668,0.222900,5.432129,-76.721191,-27.404785,14.062500,26.220703,-3.808594
602499366,-0.607178,0.043945,0.223389,4.669189,-74.279785,-27.343750,14.721680,26.293945,-4.028320
605304291,-0.606934,0.042236,0.246826,3.845215,-72.235107,-26.977539,14.721680,26.293945,-4.028320
607803165,-0.607422,0.043213,0.251465,2.899170,-70.922852,-26.336670,14.721680,26.293945,-4.028320
610656090,-0.607666,0.046631,0.262695,2.838135,-68.695068,-25.970459,14.721680,26.293945,-4.028320
613205836,-0.611084,0.048340,0.275146,2.227783,-66.894531,-25.085449,14.721680,26.293945,-4.028320
616216300,-0.617676,0.041260,0.298584,1.953125,-65.490723,-24.597168,14.721680,26.293945,-4.028320
618812405,-0.619873,0.046143,0.318848,1.831055,-63.720703,-23.895264,14.721680,26.293945,-4.028320
621465125,-0.620361,0.050293,0.327148,1.190186,-62.011719,-23.040771,14.721680,25.854492,-3.442383
624116204,-0.622803,0.050781,0.344971,0.640869,-61.279297,-22.460938,14.721680,25.854492,-3.442383
626668001,-0.625488,0.052734,0.353271,-0.061035,-59.906006,-21.667480,14.721680,25.854492,-3.442383
629374875,-0.619141,0.045654,0.370605,-0.579834,-58.990479,-21.209717,14.721680,25.854492,-3.442383
631845441,-0.616211,0.044189,0.377686,-0.793457,-57.708740,-20.385742,14.721680,25.854492,-3.442383
634878469,-0.611816,0.027588,0.378662,-0.793457,-56.091309,-19.470215,14.721680,25.854492,-3.442383
637827805,-0.608154,0.024902,0.387451,-0.885010,-54.534912,-18.920898,14.721680,25.854492,-3.442383
640737346,-0.602539,0.010986,0.396973,-0.274658,-52.673340,-17.791748,14.721680,25.854492,-3.442383
643718271,-0.595459,0.006104,0.406250,0.000000,-51.116943,-17.150879,14.794922,26.220703,-3.076172
646708222,-0.594238,0.006348,0.414551,0.823975,-48.950195,-16.876221,14.794922,26.220703,-3.076172
649251404,-0.590820,0.006348,0.427979,0.823975,-47.027588,-16.204834,14.794922,26.220703,-3.076172
652254073,-0.570313,0.036865,0.427246,-0.518799,-45.501709,-16.143799,14.794922,26.220703,-3.076172
654739819,-0.591309,-0.005371,0.412598,-1.434326,-43.640137,-15.869141,14.794922,26.220703,-3.076172
657299821,-0.603760,-0.027588,0.412598,-0.427246,-41.900635,-16.235352,14.794922,26.220703,-3.076172
660201567,-0.587158,-0.030273,0.424805,1.251221,-40.100098,-16.326904,14.794922,26.220703,-3.076172
663231723,-0.583740,-0.021973,0.435303,2.014160,-38.116455,-16.540527,14.941406,26.220703,-2.197266
666201982,-0.594727,-0.014648,0.438232,2.380371,-36.102295,-16.876221,14.941406,26.220703,-2.197266
668766087,-0.599121,-0.004395,0.440918,2.227783,-34.454346,-17.700195,14.941406,26.220703,-2.197266
671311320,-0.604248,-0.002930,0.439453,1.739502,-33.264160,-17.578125,14.941406,26.220703,-2.197266
673805681,-0.610352,0.001709,0.439941,0.793457,-32.135010,-18.371582,14.941406,26.220703,-2.197266
676824350,-0.612061,0.002441,0.434814,0.335693,-30.731201,-18.798828,14.941406,26.220703,-2.197266
679298198,-0.622070,-0.000488,0.428223,-0.366211,-28.808594,-19.348145,14.941406,26.220703,-2.197266
681996867,-0.627441,0.003418,0.433838,-0.762939,-27.008057,-19.378662,14.868164,25.708008,-2.856445
684516664,-0.630615,0.000977,0.429688,-1.007080,-25.665283,-19.622803,14.868164,25.708008,-2.856445
687053691,-0.627197,0.012207,0.427002,-1.403809,-24.291992,-19.287109,14.868164,25.708008,-2.856445
689680565,-0.626221,0.021484,0.428467,-1.770020,-22.644043,-19.561768,14.868164,25.708008,-2.856445
692189285,-0.627930,0.023438,0.429199,-2.807617,-21.362305,-19.500732,14.868164,25.708008,-2.856445
695221493,-0.628174,0.029785,0.430664,-2.960205,-20.202637,-18.859863,14.868164,25.708008,-2.856445
697955854,-0.621338,0.024170,0.429932,-4.180908,-18.432617,-18.493652,14.868164,25.708008,-2.856445
701054934,-0.622070,0.025146,0.426025,-4.486084,-17.028809,-17.730713,14.868164,25.708008,-2.856445
704026423,-0.621338,0.022461,0.413086,-5.126953,-14.923096,-16.815186,14.941406,25.488281,-2.490234
706531451,-0.624512,0.021484,0.413574,-5.279541,-13.183594,-15.625000,14.941406,25.488281,-2.490234
709060274,-0.625488,0.023682,0.409424,-5.737305,-11.322021,-15.167236,14.941406,25.488281,-2.490234
712051866,-0.626709,0.019287,0.409180,-5.950928,-9.704590,-14.129639,14.941406,25.488281,-2.490234
714540483,-0.635986,0.013428,0.403564,-6.072998,-7.293701,-13.519287,14.941406,25.488281,-2.490234
717086537,-0.632080,0.003662,0.390625,-6.561279,-5.401611,-12.512207,14.941406,25.488281,-2.490234
719536180,-0.632568,-0.000244,0.391113,-6.744385,-3.601074,-11.810303,14.941406,25.488281,-2.490234
722074848,-0.634033,-0.015869,0.398193,-6.774902,-1.708984,-11.016846,15.087891,25.341797,-2.197266
725047979,-0.639648,-0.021729,0.387939,-6.561279,-0.122070,-10.833740,15.087891,25.341797,-2.197266
727625212,-0.634277,-0.038330,0.379395,-6.591797,2.044678,-10.559082,15.087891,25.341797,-2.197266
730541317,-0.641113,-0.036865,0.386475,-6.622314,3.967285,-10.131836,15.087891,25.341797,-2.197266
733519371,-0.648438,-0.031738,0.376465,-6.683350,5.828857,-10.345459,15.087891,25.341797,-2.197266
736029321,-0.652344,-0.032959,0.368896,-7.293701,7.659912,-9.796143,15.087891,25.341797,-2.197266
738531477,-0.665527,-0.033447,0.365723,-8.239746,9.338379,-10.162354,15.087891,25.341797,-2.197266
741032402,-0.682373,-0.035156,0.354248,-8.789063,10.833740,-10.345459,15.893555,26.000977,-1.831055
743534148,-0.693115,-0.038574,0.353271,-9.674072,11.840820,-10.192871,15.893555,26.000977,-1.831055
746108919,-0.700439,-0.045166,0.355225,-10.162354,13.336182,-10.650635,15.893555,26.000977,-1.831055
748594255,-0.706299,-0.047119,0.350098,-10.589600,14.465332,-10.345459,15.893555,26.000977,-1.831055
751508308,-0.717041,-0.058838,0.355713,-10.925293,15.502930,-10.284424,15.893555,26.000977,-1.831055
754268106,-0.729248,-0.060303,0.360107,-10.559082,16.418457,-10.070801,15.893555,26.000977,-1.831055
757239595,-0.738037,-0.071289,0.355225,-10.528564,17.303467,-9.826660,15.893555,26.000977,-1.831055
760289444,-0.746582,-0.073730,0.350830,-10.253906,17.791748,-9.368896,15.893555,26.000977,-1.831055
762745651,-0.754639,-0.080811,0.361328,-9.735107,17.944336,-9.277344,15.527344,25.488281,-2.197266
765443910,-0.764893,-0.082520,0.347900,-9.948730,18.402100,-9.490967,15.527344,25.488281,-2.197266
767992835,-0.772949,-0.087402,0.346191,-9.643555,18.310547,-9.307861,15.527344,25.488281,-2.197266
770541760,-0.777832,-0.097656,0.346924,-9.338379,18.066406,-9.399414,15.527344,25.488281,-2.197266
773496839,-0.784424,-0.099365,0.345703,-8.850098,18.127441,-9.368896,15.527344,25.488281,-2.197266
776047405,-0.793701,-0.114746,0.333252,-8.666992,17.913818,-9.429932,15.527344,25.488281,-2.197266
778657869,-0.792969,-0.117676,0.337158,-8.422852,18.035889,-9.582520,15.527344,25.488281,-2.197266
781150179,-0.797363,-0.126709,0.321533,-7.415771,17.974854,-9.429932,15.234375,25.195313,-2.050781
783649463,-0.805176,-0.131348,0.317871,-6.927490,17.913818,-9.735107,15.234375,25.195313,-2.050781
786150388,-0.811523,-0.144043,0.306641,-5.859375,17.761230,-9.674072,15.234375,25.195313,-2.050781
788649262,-0.815918,-0.147705,0.293945,-4.730225,17.913818,-9.826660,15.234375,25.195313,-2.050781
791148136,-0.819092,-0.153320,0.289307,-4.394531,17.974854,-10.101318,15.747070,25.415039,-2.709961
793656856,-0.827148,-0.157227,0.284424,-3.173828,18.249512,-10.101318,15.747070,25.415039,-2.709961
796693576,-0.835449,-0.163086,0.279541,-2.593994,17.913818,-10.131836,15.747070,25.415039,-2.709961
799204348,-0.849121,-0.161133,0.276367,-1.739502,17.822266,-10.284424,15.747070,25.415039,-2.709961
801721683,-0.856445,-0.157471,0.271729,-1.098633,17.089844,-10.559082,15.454102,25.854492,-2.270508
804705070,-0.859619,-0.147217,0.269043,-0.762939,16.815186,-10.589600,15.454102,25.854492,-2.270508
807195739,-0.870605,-0.138916,0.263916,-1.159668,16.326904,-11.047363,15.454102,25.854492,-2.270508
809756972,-0.870605,-0.121826,0.253174,-1.434326,15.563965,-10.711670,15.454102,25.854492,-2.270508
812756769,-0.875244,-0.117676,0.252930,-1.434326,15.350342,-10.437012,15.600586,25.708008,-2.563477
815758618,-0.885742,-0.116943,0.235840,-1.892090,15.228271,-10.009766,15.600586,25.708008,-2.563477
818252979,-0.890869,-0.108398,0.225830,-2.136230,14.831543,-9.185791,15.600586,25.708008,-2.563477
820762519,-0.895752,-0.106201,0.220459,-1.983643,14.770508,-8.361816,15.966797,25.781250,-2.636719
823254008,-0.902832,-0.098877,0.215332,-2.319336,14.434814,-7.568359,15.966797,25.781250,-2.636719
825758626,-0.907227,-0.091309,0.215820,-2.929688,14.038086,-6.439209,15.966797,25.781250,-2.636719
828281705,-0.909912,-0.082031,0.211426,-3.784180,13.610840,-5.828857,15.966797,25.781250,-2.636719
830808476,-0.914551,-0.075195,0.212646,-4.364014,13.488770,-4.516602,15.820313,25.048828,-2.929688
833742632,-0.914307,-0.072021,0.208496,-5.645752,13.305664,-3.631592,15.820313,25.048828,-2.929688
836255455,-0.916260,-0.069580,0.206055,-7.110596,13.000488,-2.441406,15.820313,25.048828,-2.929688
838776072,-0.913330,-0.071289,0.198730,-8.361816,12.603760,-1.495361,15.820313,25.048828,-2.929688
841553100,-0.916748,-0.077881,0.201660,-9.307861,12.573242,-0.396729,15.747070,25.854492,-3.149414
844321513,-0.920654,-0.086914,0.200195,-10.375977,12.390137,1.007080,15.747070,25.854492,-3.149414
847277413,-0.918701,-0.090820,0.194092,-10.986328,12.420654,2.258301,15.747070,25.854492,-3.149414
849811158,-0.920410,-0.098633,0.200195,-11.596680,12.390137,3.662109,15.747070,25.854492,-3.149414
852275571,-0.925781,-0.106689,0.199951,-11.993408,12.573242,4.882813,15.307617,25.561523,-3.295898
855263470,-0.924072,-0.109619,0.201660,-11.871338,12.237549,5.798340,15.307617,25.561523,-3.295898
857975268,-0.929932,-0.116455,0.197021,-12.145996,12.451172,6.896973,15.307617,25.561523,-3.295898
860527065,-0.931885,-0.123291,0.197266,-12.512207,12.512207,7.507324,15.820313,25.634766,-3.076172
863113733,-0.936279,-0.137695,0.200928,-12.298584,12.512207,8.422852,15.820313,25.634766,-3.076172
865763582,-0.939941,-0.142334,0.198242,-12.451172,12.634277,8.636475,15.820313,25.634766,-3.076172
868525430,-0.943115,-0.150635,0.198486,-12.237549,12.603760,8.728027,15.820313,25.634766,-3.076172
871547792,-0.948486,-0.161621,0.202637,-12.481689,12.176514,8.666992,16.259766,25.488281,-3.076172
874547999,-0.960938,-0.174805,0.207275,-11.871338,12.390137,8.575439,16.259766,25.488281,-3.076172
877088719,-0.965820,-0.181396,0.209229,-11.352539,12.084961,8.361816,16.259766,25.488281,-3.076172
880046260,-0.968018,-0.195068,0.220215,-11.047363,11.810303,7.843018,16.259766,25.488281,-3.076172
882557852,-0.978760,-0.206299,0.221924,-9.826660,10.650635,7.232666,16.259766,25.488281,-3.076172
885056726,-0.985352,-0.215576,0.219727,-8.728027,10.131836,6.561279,16.259766,25.488281,-3.076172
887604010,-0.990234,-0.216553,0.220215,-7.324219,9.887695,6.042480,16.259766,25.488281,-3.076172
890564012,-0.998047,-0.227539,0.224121,-6.378174,8.697510,5.065918,15.673828,26.367188,-2.929688
893114578,-1.011475,-0.222900,0.240234,-4.974365,7.598877,3.997803,15.673828,26.367188,-2.929688
895620427,-1.008545,-0.229980,0.242920,-3.906250,6.835938,3.173828,15.673828,26.367188,-2.929688
898561147,-1.017090,-0.229004,0.246094,-2.807617,5.462646,2.227783,15.673828,26.367188,-2.929688
901074380,-1.020752,-0.227539,0.249268,-1.159668,4.333496,1.434326,15.673828,26.367188,-2.929688
903654895,-1.027344,-0.229248,0.246582,0.244141,3.143311,0.762939,15.673828,26.367188,-2.929688
906673564,-1.033203,-0.229248,0.245117,1.647949,1.800537,-0.152588,15.673828,26.367188,-2.929688
909169566,-1.038818,-0.221680,0.250732,3.112793,0.549316,-0.610352,15.673828,26.367188,-2.929688
911698799,-1.041016,-0.215332,0.262451,4.760742,-1.098633,-1.403809,16.113281,25.781250,-2.929688
914616545,-1.042725,-0.195801,0.260742,5.798340,-2.166748,-1.647949,16.113281,25.781250,-2.929688
917092855,-1.042725,-0.187500,0.269775,6.927490,-4.211426,-2.258301,16.113281,25.781250,-2.929688
920065575,-1.038086,-0.174805,0.267578,7.904053,-4.882813,-2.166748,16.113281,25.781250,-2.929688
922776552,-1.037598,-0.161865,0.256592,8.514404,-6.408691,-2.441406,16.113281,25.781250,-2.929688
925554810,-1.034424,-0.155518,0.251953,9.155273,-7.659912,-2.166748,16.113281,25.781250,-2.929688
928067633,-1.029785,-0.145996,0.245117,10.223389,-8.605957,-1.525879,16.113281,25.781250,-2.929688
931012045,-1.028076,-0.140137,0.245117,11.505127,-8.850098,-1.342773,15.893555,26.147461,-2.856445
933568355,-1.023193,-0.135010,0.240723,12.268066,-9.613037,-0.610352,15.893555,26.147461,-2.856445
936074614,-1.019531,-0.129395,0.236328,13.336182,-10.040283,-0.061035,15.893555,26.147461,-2.856445
938614513,-1.018311,-0.116943,0.235107,13.458252,-10.498047,0.244141,15.893555,26.147461,-2.856445
941510105,-1.013184,-0.102295,0.240479,13.336182,-10.742188,0.183105,15.893555,26.147461,-2.856445
944124261,-1.001221,-0.091064,0.244629,13.275146,-11.230469,0.335693,15.893555,26.147461,-2.856445
947070725,-0.996338,-0.090088,0.246826,12.725830,-11.596680,0.488281,15.893555,26.147461,-2.856445
949860061,-0.984131,-0.086426,0.240234,11.840820,-11.535645,0.793457,15.966797,25.927734,-2.343750
952826217,-0.974121,-0.082031,0.226563,11.047363,-11.505127,0.793457,15.966797,25.927734,-2.343750
955790732,-0.961426,-0.094482,0.222412,10.925293,-11.016846,1.007080,15.966797,25.927734,-2.343750
958337606,-0.954834,-0.095459,0.216553,10.589600,-10.223389,1.098633,15.966797,25.927734,-2.343750
960838531,-0.948975,-0.096680,0.208984,10.742188,-10.070801,1.495361,15.966797,25.927734,-2.343750
963492482,-0.946777,-0.096924,0.202637,11.016846,-8.544922,1.770020,15.966797,25.927734,-2.343750
965957305,-0.941406,-0.098389,0.202637,10.833740,-7.720947,1.861572,15.966797,25.927734,-2.343750
968934538,-0.940674,-0.092041,0.195313,10.833740,-6.835938,1.708984,15.966797,25.927734,-2.343750
971574130,-0.943359,-0.089111,0.197266,10.681152,-5.828857,1.739502,15.747070,25.708008,-3.442383
974665415,-0.943359,-0.089844,0.204346,9.704590,-4.852295,1.342773,15.747070,25.708008,-3.442383
977155263,-0.945557,-0.081787,0.194824,9.185791,-3.723145,0.823975,15.747070,25.708008,-3.442383
979702957,-0.946045,-0.083252,0.204590,8.422852,-3.326416,0.427246,15.747070,25.708008,-3.442383
982503370,-0.953613,-0.086914,0.205811,7.812500,-2.716064,-0.061035,15.747070,25.708008,-3.442383
985466654,-0.956787,-0.082275,0.218506,6.896973,-2.349854,-0.335693,15.747070,25.708008,-3.442383
987967579,-0.963867,-0.081787,0.224365,6.164551,-2.075195,-0.885010,15.747070,25.708008,-3.442383
990577223,-0.965088,-0.074951,0.224854,5.645752,-1.800537,-1.098633,15.161133,25.854492,-3.295898
994072610,-0.970947,-0.076416,0.223145,5.218506,-1.922607,-1.373291,15.161133,25.854492,-3.295898
997043689,-0.969971,-0.066895,0.226563,4.547119,-1.739502,-1.556396,15.161133,25.854492,-3.295898
999543794,-0.969482,-0.062500,0.235352,4.241943,-1.922607,-1.373291,15.161133,25.854492,-3.295898
1002190771,-0.971680,-0.058838,0.228760,3.662109,-1.861572,-1.281738,15.161133,25.854492,-3.295898
1004755285,-0.969971,-0.058594,0.236816,3.326416,-1.770020,-1.403809,15.161133,25.854492,-3.295898
1007729237,-0.973389,-0.056396,0.227295,2.960205,-1.861572,-0.946045,15.161133,25.854492,-3.295898
1011204522,-0.973389,-0.053467,0.236816,2.777100,-1.861572,-0.335693,15.454102,25.415039,-2.709961
1014160011,-0.970703,-0.054932,0.231934,2.044678,-1.373291,0.183105,15.454102,25.415039,-2.709961
1016661347,-0.972168,-0.055664,0.241455,1.922607,-1.586914,1.068115,15.454102,25.415039,-2.709961
1019165964,-0.973145,-0.057617,0.240723,1.922607,-2.075195,1.525879,15.454102,25.415039,-2.709961
1021729248,-0.973145,-0.057129,0.235596,1.892090,-1.861572,2.044678,15.454102,25.415039,-2.709961
1024724122,-0.977295,-0.060547,0.240723,2.136230,-1.586914,2.593994,15.454102,25.415039,-2.709961
1027653356,-0.974609,-0.062988,0.239502,2.075195,-2.075195,3.143311,15.454102,25.415039,-2.709961
1030601461,-0.976563,-0.064453,0.244141,2.258301,-2.258301,3.845215,15.893555,25.854492,-2.856445
1033101565,-0.974609,-0.060547,0.248779,1.861572,-2.410889,4.058838,15.893555,25.854492,-2.856445
1035600849,-0.967285,-0.069824,0.245361,2.197266,-2.685547,4.425049,15.893555,25.854492,-2.856445
1038102185,-0.968262,-0.072021,0.242432,1.892090,-2.563477,4.486084,15.893555,25.854492,-2.856445
1041029777,-0.963379,-0.071045,0.245361,2.197266,-3.173828,4.760742,15.893555,25.854492,-2.856445
1043631215,-0.955322,-0.078857,0.236084,2.105713,-2.960205,4.760742,15.893555,25.854492,-2.856445
1046157576,-0.951172,-0.078125,0.235107,2.014160,-3.143311,4.669189,15.893555,25.854492,-2.856445
1048764757,-0.946533,-0.077881,0.228027,1.983643,-2.624512,4.852295,15.893555,25.854492,-2.856445
1051353888,-0.941650,-0.077393,0.220215,2.044678,-2.502441,4.852295,15.893555,26.000977,-3.149414
1053876146,-0.937256,-0.081787,0.218262,1.922607,-2.166748,4.638672,15.893555,26.000977,-3.149414
1056376661,-0.929688,-0.085938,0.196045,1.922607,-1.464844,4.577637,15.893555,26.000977,-3.149414
1059360869,-0.926514,-0.080811,0.198242,1.800537,-1.007080,4.364014,15.893555,26.000977,-3.149414
1061981999,-0.918457,-0.077637,0.191895,1.647949,0.000000,3.509521,15.893555,26.000977,-3.149414
1064477181,-0.912109,-0.076660,0.187500,1.312256,0.885010,3.295898,15.893555,26.000977,-3.149414
1067029798,-0.911377,-0.074463,0.174561,0.701904,1.281738,2.868652,15.893555,26.000977,-3.149414
1069877800,-0.906738,-0.068115,0.170654,0.366211,2.471924,2.349854,15.527344,25.488281,-2.929688
1072799239,-0.906494,-0.072266,0.171387,-0.579834,3.356934,1.770020,15.527344,25.488281,-2.929688
1075520061,-0.899902,-0.072510,0.171631,-1.434326,4.272461,1.220703,15.527344,25.488281,-2.929688
1078209705,-0.901123,-0.072021,0.166748,-1.739502,5.371094,0.793457,15.527344,25.488281,-2.929688
1080809912,-0.901367,-0.070557,0.158447,-2.380371,6.439209,0.244141,15.527344,25.488281,-2.929688
1083309606,-0.904785,-0.063965,0.161865,-3.143311,7.385254,0.244141,15.527344,25.488281,-2.929688
1085858121,-0.905273,-0.067139,0.159424,-3.479004,8.148193,-0.061035,15.527344,25.488281,-2.929688
1088774226,-0.912598,-0.059082,0.154297,-3.814697,8.972168,-0.427246,15.527344,25.488281,-2.929688
1091401100,-0.920410,-0.063477,0.158447,-4.821777,9.765625,-0.549316,15.820313,25.634766,-2.783203
1094827154,-0.926025,-0.058105,0.158936,-5.737305,10.192871,-0.762939,15.820313,25.634766,-2.783203
1097405208,-0.935059,-0.056152,0.159424,-6.530762,10.437012,-0.701904,15.820313,25.634766,-2.783203
1100431261,-0.940674,-0.049805,0.170898,-7.354736,11.230469,-0.366211,15.820313,25.634766,-2.783203
1103435161,-0.945557,-0.056152,0.163818,-7.690430,11.566162,-0.152588,15.820313,25.634766,-2.783203
1106383677,-0.952881,-0.059814,0.172607,-7.690430,11.352539,0.335693,15.820313,25.634766,-2.783203
1109349833,-0.958496,-0.068359,0.171387,-7.934570,11.413574,0.549316,14.794922,26.074219,-2.929688
1112180604,-0.962646,-0.076660,0.174561,-7.812500,11.718750,1.159668,14.794922,26.074219,-2.929688
1114990453,-0.968018,-0.079102,0.185059,-7.568359,11.260986,1.495361,14.794922,26.074219,-2.929688
1117950866,-0.976563,-0.080078,0.181152,-7.232666,11.291504,2.136230,14.794922,26.074219,-2.929688
1121005637,-0.982910,-0.083496,0.181152,-6.622314,10.955811,2.197266,15.673828,25.781250,-2.636719
1124172819,-0.985596,-0.090820,0.186768,-6.439209,10.162354,2.105713,15.673828,25.781250,-2.636719
1126880104,-0.981689,-0.089111,0.187744,-5.920410,9.704590,2.410889,15.673828,25.781250,-2.636719
1129323593,-0.986084,-0.094482,0.186768,-5.889893,9.460449,2.410889,15.527344,26.220703,-2.490234
1131942672,-0.981201,-0.101807,0.176514,-4.974365,8.819580,2.380371,15.527344,26.220703,-2.490234
1134896110,-0.978516,-0.107666,0.176270,-4.821777,8.575439,2.227783,15.527344,26.220703,-2.490234
1137340830,-0.971436,-0.112061,0.169922,-3.814697,8.148193,1.617432,15.527344,26.220703,-2.490234
1140329140,-0.972656,-0.111084,0.160156,-3.051758,8.026123,1.403809,15.527344,25.927734,-2.636719
1143357656,-0.962158,-0.110840,0.160889,-2.563477,7.476807,1.464844,15.527344,25.927734,-2.636719
1146339812,-0.958252,-0.109131,0.154785,-1.983643,7.934570,0.823975,15.527344,25.927734,-2.636719
1149389250,-0.954590,-0.098633,0.125488,-1.556396,7.904053,0.213623,15.600586,26.000977,-3.149414
1151844227,-0.955078,-0.091797,0.122070,-1.403809,8.361816,-0.213623,15.600586,26.000977,-3.149414
1154358690,-0.950439,-0.090820,0.114990,-1.586914,8.300781,-0.579834,15.600586,26.000977,-3.149414
1156904333,-0.949463,-0.085205,0.112061,-1.770020,9.155273,-0.915527,15.600586,26.000977,-3.149414
1159406900,-0.952881,-0.079834,0.098145,-1.556396,9.063721,-1.342773,15.966797,26.220703,-3.369141
1161922594,-0.951660,-0.078857,0.099121,-1.983643,9.826660,-1.678467,15.966797,26.220703,-3.369141
1164428032,-0.948730,-0.077393,0.089844,-2.319336,9.796143,-1.861572,15.966797,26.220703,-3.369141
1167429470,-0.952881,-0.075684,0.094482,-2.441406,10.009766,-1.983643,15.966797,26.220703,-3.369141
1170377985,-0.957275,-0.068848,0.085205,-2.838135,10.284424,-2.105713,15.820313,25.927734,-3.076172
1172853885,-0.957764,-0.074463,0.088379,-2.593994,10.864258,-2.136230,15.820313,25.927734,-3.076172
1175503323,-0.958008,-0.072021,0.078857,-2.685547,11.016846,-1.922607,15.820313,25.927734,-3.076172
1178193376,-0.963623,-0.071777,0.083008,-3.082275,11.322021,-1.953125,15.820313,25.927734,-3.076172
1180745584,-0.962646,-0.069336,0.076172,-2.929688,11.718750,-2.014160,15.234375,25.927734,-2.636719
1183697791,-0.962158,-0.065186,0.065674,-3.479004,11.871338,-1.831055,15.234375,25.927734,-2.636719
1186711537,-0.967529,-0.064941,0.069580,-3.509521,11.932373,-1.892090,15.234375,25.927734,-2.636719
1189190309,-0.969971,-0.062744,0.071289,-4.211426,12.207031,-1.831055,15.527344,25.927734,-3.369141
1192060055,-0.969727,-0.066895,0.067627,-4.302979,12.237549,-1.647949,15.527344,25.927734,-3.369141
1194976570,-0.975098,-0.067627,0.060303,-4.760742,12.207031,-1.342773,15.527344,25.927734,-3.369141
1197465597,-0.980957,-0.070068,0.062500,-4.852295,12.603760,-1.434326,15.527344,25.927734,-3.369141
1200407549,-0.984131,-0.069580,0.063965,-5.065918,12.390137,-1.434326,15.747070,25.561523,-2.563477
1203399961,-0.987793,-0.073730,0.064941,-5.218506,12.512207,-1.312256,15.747070,25.561523,-2.563477
1205857809,-0.987549,-0.072510,0.080078,-4.669189,12.176514,-1.037598,15.747070,25.561523,-2.563477
1208830120,-0.993408,-0.072021,0.068359,-4.913330,12.176514,-0.854492,15.747070,25.561523,-2.563477
1211820071,-0.995117,-0.069336,0.070313,-4.821777,11.749268,-1.037598,15.747070,25.561523,-2.563477
1214318945,-0.995117,-0.078369,0.065918,-4.669189,12.176514,-0.732422,15.747070,25.561523,-2.563477
1216824383,-0.995850,-0.076660,0.067627,-4.852295,11.657715,-0.762939,15.747070,25.561523,-2.563477
1219802026,-0.996094,-0.077148,0.068359,-4.577637,11.291504,-0.793457,15.600586,25.708008,-3.735352
1222817413,-0.999756,-0.081543,0.074707,-4.608154,11.199951,-0.976563,15.600586,25.708008,-3.735352
1226271365,-1.005615,-0.083496,0.066406,-4.486084,11.352539,-1.007080,15.600586,25.708008,-3.735352
1228825213,-1.004395,-0.084473,0.072266,-4.455566,10.681152,-1.312256,15.600586,25.708008,-3.735352
1231328189,-1.010010,-0.083496,0.073486,-4.547119,10.833740,-1.464844,15.600586,25.708008,-3.735352
1233868909,-1.006592,-0.075684,0.063721,-4.180908,10.498047,-1.495361,15.600586,25.708008,-3.735352
1236395270,-1.013184,-0.080078,0.058350,-4.241943,10.101318,-1.739502,15.600586,25.708008,-3.735352
1239410657,-1.011719,-0.081055,0.062256,-4.119873,9.674072,-1.556396,15.893555,26.147461,-3.735352
1242036711,-1.016113,-0.080811,0.060303,-3.936768,9.460449,-1.983643,15.893555,26.147461,-3.735352
1244787072,-1.016602,-0.080322,0.063965,-3.875732,8.911133,-1.892090,15.893555,26.147461,-3.735352
1247386869,-1.015625,-0.081299,0.062256,-3.540039,8.941650,-1.953125,15.893555,26.147461,-3.735352
1249848410,-1.016846,-0.087158,0.049072,-3.601074,8.270264,-1.861572,15.893555,26.147461,-3.735352
1252496617,-1.021240,-0.086182,0.051025,-3.234863,7.934570,-2.044678,15.893555,26.147461,-3.735352
1255009029,-1.016846,-0.088379,0.049316,-3.143311,7.629395,-1.892090,15.893555,26.147461,-3.735352
1257902160,-1.014404,-0.091309,0.044922,-2.868652,7.171631,-1.983643,15.893555,26.147461,-3.735352
1260875290,-1.017090,-0.096191,0.044434,-2.471924,6.683350,-1.525879,15.600586,26.147461,-3.442383
1263846780,-1.019043,-0.099609,0.046875,-2.410889,6.713867,-1.800537,15.600586,26.147461,-3.442383
1266350577,-1.019043,-0.096436,0.037598,-2.258301,6.378174,-1.953125,15.600586,26.147461,-3.442383
1269303195,-1.021973,-0.097656,0.037842,-2.075195,5.706787,-1.708984,15.600586,26.147461,-3.442383
1271878376,-1.021484,-0.094971,0.036621,-1.953125,5.462646,-1.678467,15.600586,26.147461,-3.442383
1274888430,-1.024658,-0.091309,0.042725,-1.922607,5.249023,-1.892090,15.600586,26.147461,-3.442383
1277397971,-1.023438,-0.087646,0.042236,-2.227783,4.730225,-1.922607,15.600586,26.147461,-3.442383
1280403512,-1.020752,-0.091309,0.050293,-2.319336,4.302979,-1.892090,15.893555,26.586914,-3.295898
1282848232,-1.023438,-0.089600,0.048828,-2.258301,3.875732,-2.044678,15.893555,26.586914,-3.295898
1285357772,-1.022217,-0.091309,0.045898,-2.563477,3.784180,-2.044678,15.893555,26.586914,-3.295898
1287935415,-1.025146,-0.093018,0.047363,-2.716064,3.509521,-1.831055,15.893555,26.586914,-3.295898
1290987315,-1.025391,-0.102539,0.055908,-2.349854,3.509521,-2.014160,15.893555,26.586914,-3.295898
1294015830,-1.023193,-0.102051,0.056885,-2.349854,2.746582,-1.831055,15.893555,26.586914,-3.295898
1296524961,-1.026367,-0.097412,0.054443,-1.953125,2.349854,-1.678467,15.893555,26.586914,-3.295898
1299063630,-1.030518,-0.093262,0.059814,-1.586914,2.014160,-1.647949,15.454102,26.586914,-3.735352
1301698709,-1.032471,-0.091309,0.064453,-1.495361,1.922607,-1.495361,15.454102,26.586914,-3.735352
1304438403,-1.028320,-0.091797,0.066406,-1.495361,1.281738,-1.281738,15.454102,26.586914,-3.735352
1307012354,-1.032959,-0.096436,0.067871,-1.251221,0.915527,-1.617432,15.454102,26.586914,-3.735352
1310044562,-1.024414,-0.100098,0.070557,-1.342773,0.427246,-1.525879,15.454102,26.586914,-3.735352
1312474923,-1.021729,-0.099609,0.068115,-1.129150,0.091553,-1.525879,15.454102,26.586914,-3.735352
1315030822,-1.017578,-0.100586,0.073242,-1.281738,-0.732422,-1.281738,15.454102,26.586914,-3.735352
1317990004,-1.013916,-0.096191,0.067871,-1.251221,-0.610352,-1.464844,15.454102,26.586914,-3.735352
1320927442,-1.011475,-0.104492,0.069092,-0.854492,-1.159668,-1.342773,15.673828,26.660156,-3.662109
1323939547,-1.007080,-0.106445,0.064697,-1.068115,-0.976563,-1.556396,15.673828,26.660156,-3.662109
1326500780,-1.004639,-0.106445,0.058838,-0.488281,-1.617432,-1.281738,15.673828,26.660156,-3.662109
1329043552,-0.999023,-0.107422,0.053467,-0.488281,-1.434326,-1.434326,15.673828,26.660156,-3.662109
1331724169,-0.997559,-0.107910,0.061768,-0.335693,-1.281738,-1.373291,15.673828,26.660156,-3.662109
1334489300,-0.990234,-0.107910,0.058105,-0.213623,-1.251221,-1.495361,15.673828,26.660156,-3.662109
1337002122,-0.988281,-0.104736,0.061035,0.335693,-1.342773,-1.220703,15.673828,26.660156,-3.662109
1339967458,-0.986084,-0.103760,0.067627,-0.122070,-1.525879,-1.312256,15.380859,26.220703,-3.955078
1343050537,-0.983887,-0.103760,0.065918,-0.122070,-1.068115,-1.708984,15.380859,26.220703,-3.955078
1346088489,-0.987061,-0.102783,0.071777,-0.122070,-1.312256,-1.617432,15.380859,26.220703,-3.955078
1349061209,-0.989014,-0.098145,0.084717,-0.366211,-1.159668,-2.075195,15.380859,26.220703,-3.955078
1352017109,-0.981934,-0.091553,0.084961,-0.885010,-1.525879,-2.166748,15.380859,26.220703,-3.955078
1354560701,-0.981934,-0.089600,0.088623,-0.976563,-1.495361,-2.288818,15.380859,26.220703,-3.955078
1357074344,-0.980469,-0.086182,0.092773,-2.014160,-1.525879,-2.685547,15.380859,26.220703,-3.955078
1359562961,-0.981201,-0.084961,0.090820,-1.892090,-1.586914,-2.380371,15.673828,25.781250,-4.101563
1362098758,-0.978027,-0.085938,0.089355,-2.197266,-1.556396,-2.410889,15.673828,25.781250,-4.101563
1364999684,-0.976074,-0.087646,0.088135,-2.288818,-1.495361,-2.227783,15.673828,25.781250,-4.101563
1367553942,-0.973633,-0.085693,0.084961,-2.593994,-0.885010,-1.739502,15.673828,25.781250,-4.101563
1370574663,-0.974365,-0.090332,0.090332,-2.471924,-1.007080,-1.861572,15.673828,25.781250,-4.101563
1373439896,-0.970703,-0.092773,0.087158,-2.410889,-0.549316,-1.373291,15.673828,25.781250,-4.101563
1376359283,-0.968262,-0.092773,0.091064,-2.410889,-0.183105,-1.007080,15.673828,25.781250,-4.101563
1379336106,-0.968750,-0.095947,0.098633,-2.166748,0.488281,-0.854492,16.113281,25.927734,-3.808594
1381932210,-0.968994,-0.096436,0.086182,-2.044678,0.762939,-0.823975,16.113281,25.927734,-3.808594
1384902879,-0.972412,-0.099121,0.089111,-1.892090,1.342773,-0.305176,16.113281,25.927734,-3.808594
1387839497,-0.973389,-0.098877,0.093994,-1.831055,1.678467,-0.061035,16.113281,25.927734,-3.808594
1390339602,-0.972656,-0.097656,0.090088,-2.349854,1.922607,-0.091553,16.113281,25.927734,-3.808594
1392992732,-0.977295,-0.103516,0.095215,-2.288818,2.258301,-0.213623,16.113281,25.927734,-3.808594
1395545760,-0.976074,-0.106689,0.104736,-2.746582,2.288818,-0.305176,16.113281,25.927734,-3.808594
1398575506,-0.979492,-0.108398,0.102051,-3.234863,2.716064,-0.518799,16.040039,26.000977,-3.588867
1401556842,-0.978027,-0.108643,0.097412,-2.777100,3.143311,0.000000,16.040039,26.000977,-3.588867
1404408536,-0.977783,-0.112305,0.097168,-2.960205,3.082275,-0.518799,16.040039,26.000977,-3.588867
1406933667,-0.983887,-0.121338,0.104492,-2.746582,3.234863,-0.427246,16.040039,26.000977,-3.588867
1410064746,-0.988770,-0.120605,0.108398,-2.777100,3.417969,-0.396729,16.040039,26.000977,-3.588867
1413014492,-0.989258,-0.123535,0.107910,-2.288818,3.204346,-0.305176,16.040039,26.000977,-3.588867
1415969982,-0.987793,-0.124756,0.106934,-2.044678,3.570557,0.152588,16.040039,26.000977,-3.588867
1418578804,-0.985352,-0.123291,0.113037,-1.586914,3.326416,-0.030518,16.113281,26.367188,-3.076172
1421567935,-0.993164,-0.126709,0.116211,-1.434326,3.509521,0.030518,16.113281,26.367188,-3.076172
1424441784,-0.989746,-0.125977,0.109131,-0.823975,3.173828,-0.518799,16.113281,26.367188,-3.076172
1427435837,-0.991943,-0.127197,0.115479,-0.427246,3.631592,-0.274658,16.113281,26.367188,-3.076172
1430061481,-0.990967,-0.124268,0.119629,-0.091553,3.601074,-0.488281,16.333008,26.440430,-3.295898
1433063739,-0.986816,-0.127197,0.107422,0.061035,3.326416,-0.823975,16.333008,26.440430,-3.295898
1436035639,-0.974854,-0.129150,0.109375,0.122070,3.662109,-0.854492,16.333008,26.440430,-3.295898
1439024360,-0.973389,-0.129150,0.112305,0.732422,4.150391,-1.159668,16.259766,26.220703,-3.515625
1442102516,-0.976318,-0.132080,0.105469,1.159668,4.028320,-1.190186,16.259766,26.220703,-3.515625
1445066621,-0.979736,-0.131348,0.103516,1.831055,4.089355,-1.617432,16.259766,26.220703,-3.515625
1448095957,-0.979004,-0.130615,0.104736,2.197266,4.486084,-1.708984,16.113281,26.220703,-3.515625
1451053088,-0.981201,-0.128418,0.099121,2.471924,4.669189,-1.892090,16.113281,26.220703,-3.515625
1454014731,-0.980713,-0.120605,0.103027,2.807617,4.852295,-2.014160,16.113281,26.220703,-3.515625
1456568579,-0.981445,-0.117432,0.109131,2.838135,4.760742,-2.288818,16.113281,26.220703,-3.515625
1459064992,-0.986328,-0.119629,0.103027,2.838135,4.882813,-2.502441,16.186523,26.733398,-3.588867
1462082020,-0.984863,-0.120605,0.108154,2.899170,4.791260,-2.807617,16.186523,26.733398,-3.588867
1464609201,-0.985107,-0.111816,0.100586,2.655029,4.882813,-2.380371,16.186523,26.733398,-3.588867
1467535973,-0.990479,-0.113281,0.102295,3.173828,4.760742,-2.410889,16.333008,26.879883,-3.295898
1470131667,-0.990234,-0.108887,0.098145,3.265381,4.699707,-2.380371,16.333008,26.879883,-3.295898
1472831977,-0.990479,-0.114258,0.095459,3.570557,4.638672,-2.258301,16.333008,26.879883,-3.295898
1475339056,-0.989502,-0.106934,0.096924,4.058838,4.699707,-2.075195,16.333008,26.879883,-3.295898
1477900699,-0.994141,-0.098389,0.105469,3.845215,4.455566,-1.586914,16.406250,26.367188,-3.955078
1480920189,-0.992676,-0.092529,0.099609,3.601074,4.394531,-1.617432,16.406250,26.367188,-3.955078
1484374141,-0.994385,-0.086426,0.095459,3.082275,4.486084,-1.464844,16.406250,26.367188,-3.955078
1487074861,-0.993408,-0.074219,0.090332,2.105713,4.333496,-1.007080,16.406250,26.367188,-3.955078
1489923273,-0.993896,-0.074219,0.087402,1.403809,4.547119,-1.281738,15.527344,26.220703,-3.955078
1492923071,-0.989990,-0.076660,0.083740,0.701904,4.364014,-0.946045,15.527344,26.220703,-3.955078
1495370252,-0.984131,-0.075439,0.081543,0.091553,4.730225,-1.220703,15.527344,26.220703,-3.955078
1498116921,-0.983643,-0.078613,0.075195,-0.366211,5.157471,-1.007080,15.527344,26.220703,-3.955078
1501033026,-0.981201,-0.079590,0.082520,-0.823975,5.096436,-0.488281,15.527344,26.220703,-3.955078
1503660720,-0.981934,-0.088135,0.080078,-1.495361,5.767822,-0.671387,15.527344,26.220703,-3.955078
1506580518,-0.976074,-0.085205,0.078125,-1.495361,5.920410,0.000000,15.527344,26.220703,-3.955078
1509379289,-0.978760,-0.094482,0.073975,-1.770020,6.439209,0.122070,15.966797,25.781250,-3.662109
1511897035,-0.981445,-0.093994,0.079102,-1.647949,6.774902,0.000000,15.966797,25.781250,-3.662109
1514739704,-0.981934,-0.094482,0.072021,-1.800537,6.835938,0.152588,15.966797,25.781250,-3.662109
1517318168,-0.984375,-0.091797,0.081787,-2.288818,7.415771,0.305176,15.966797,25.781250,-3.662109
1519941759,-0.987061,-0.093994,0.085449,-2.044678,6.958008,-0.030518,15.966797,25.781250,-3.662109
1522545659,-0.987061,-0.093994,0.085205,-2.471924,7.202148,0.152588,15.966797,25.781250,-3.662109
1525607815,-0.993652,-0.093506,0.088867,-2.532959,7.415771,0.183105,15.966797,25.781250,-3.662109
1528083715,-0.988770,-0.101318,0.083008,-2.593994,7.019043,0.122070,16.113281,26.513672,-3.955078
1530582589,-0.996094,-0.104248,0.087158,-2.471924,7.080078,0.000000,16.113281,26.513672,-3.955078
1533081463,-0.997559,-0.108154,0.082275,-2.227783,6.988525,0.000000,16.113281,26.513672,-3.955078
1535593875,-0.999023,-0.114502,0.088867,-2.014160,6.591797,-0.061035,16.113281,26.513672,-3.955078
1538092749,-1.002930,-0.116455,0.086914,-1.922607,6.958008,-0.183105,16.113281,26.513672,-3.955078
1540998187,-1.007568,-0.120117,0.093506,-1.281738,6.591797,-0.061035,16.113281,26.513672,-3.955078
1543528240,-1.003906,-0.121582,0.091064,-0.427246,6.256104,-0.061035,16.113281,26.513672,-3.955078
1546558397,-1.005859,-0.122803,0.092529,-0.213623,6.103516,-0.274658,16.113281,26.513672,-3.955078
1549253784,-1.006348,-0.124512,0.098145,0.396729,5.706787,-0.427246,16.040039,26.147461,-3.149414
1552012760,-1.004150,-0.125488,0.094482,1.159668,5.249023,-0.518799,16.040039,26.147461,-3.149414
1555039634,-1.004150,-0.129395,0.097412,1.647949,5.065918,-0.854492,16.040039,26.147461,-3.149414
1557583226,-1.003662,-0.133789,0.095947,2.441406,4.608154,-0.946045,16.040039,26.147461,-3.149414
1560277382,-1.002441,-0.131348,0.089111,2.685547,4.180908,-1.434326,16.040039,26.147461,-3.149414
1562951846,-0.997803,-0.139404,0.089844,3.662109,4.241943,-1.312256,16.040039,26.147461,-3.149414
1565653797,-0.999268,-0.137207,0.086914,4.394531,3.906250,-1.617432,16.040039,26.147461,-3.149414
1568627748,-0.996338,-0.141846,0.084473,5.279541,3.570557,-2.014160,16.113281,25.927734,-3.076172
1571472468,-0.993896,-0.142090,0.081543,6.042480,3.387451,-2.319336,16.113281,25.927734,-3.076172
1574539548,-0.988525,-0.136963,0.078125,6.744385,3.417969,-3.021240,16.113281,25.927734,-3.076172
1577060576,-0.988281,-0.126709,0.078125,6.896973,3.112793,-3.417969,16.113281,25.927734,-3.076172
1580007040,-0.987549,-0.124512,0.075928,6.958008,3.051758,-3.753662,16.113281,25.927734,-3.076172
1582571965,-0.990967,-0.116699,0.074951,6.469727,2.777100,-4.516602,16.113281,25.927734,-3.076172
1585092172,-0.989258,-0.104248,0.074707,6.225586,2.838135,-5.249023,16.113281,25.927734,-3.076172
1587557405,-0.989746,-0.101074,0.067139,6.317139,2.685547,-5.065918,15.893555,26.440430,-3.295898
1590107561,-0.993408,-0.093994,0.072754,5.981445,2.563477,-5.035400,15.893555,26.440430,-3.295898
1593010537,-0.993652,-0.085938,0.059326,5.706787,2.655029,-5.340576,15.893555,26.440430,-3.295898
1595518027,-0.991455,-0.083984,0.060791,5.828857,2.502441,-5.340576,15.893555,26.440430,-3.295898
1598032900,-1.000488,-0.076172,0.061035,5.157471,2.746582,-5.065918,15.893555,26.440430,-3.295898
1600681928,-0.998291,-0.073486,0.062744,5.126953,2.410889,-4.730225,15.893555,26.440430,-3.295898
1603241520,-0.999756,-0.065674,0.056152,4.638672,2.441406,-4.699707,15.893555,26.440430,-3.295898
1606199061,-1.002930,-0.059326,0.062988,4.180908,2.166748,-4.241943,15.893555,26.440430,-3.295898
1608752909,-1.004883,-0.057129,0.065918,4.028320,2.197266,-3.784180,15.966797,26.367188,-3.515625
1611266552,-1.007568,-0.057617,0.071777,3.692627,1.831055,-3.234863,15.966797,26.367188,-3.515625
1613757631,-1.011230,-0.055664,0.074219,3.265381,2.105713,-2.838135,15.966797,26.367188,-3.515625
1616210146,-1.012451,-0.052734,0.070068,2.807617,1.525879,-2.349854,15.966797,26.367188,-3.515625
1619188200,-1.010742,-0.053955,0.066895,2.349854,1.647949,-2.044678,15.966797,26.367188,-3.515625
1622233536,-1.013672,-0.053711,0.070313,2.227783,1.281738,-1.342773,15.966797,26.367188,-3.515625
1625284205,-1.012695,-0.055664,0.076172,1.251221,1.037598,-1.373291,15.966797,26.367188,-3.515625
1627831079,-1.011230,-0.053467,0.077881,0.823975,1.190186,-1.037598,15.966797,26.220703,-3.955078
1630810363,-1.001953,-0.058838,0.071777,0.488281,0.946045,-0.854492,15.966797,26.220703,-3.955078
1633795391,-1.002197,-0.063965,0.070068,-0.396729,0.854492,-0.610352,15.966797,26.220703,-3.955078
1636296316,-0.994141,-0.073486,0.077393,-0.579834,0.823975,-0.671387,15.966797,26.220703,-3.955078
1638794370,-0.991455,-0.081055,0.071045,-0.915527,0.762939,-0.671387,15.966797,26.220703,-3.955078
1641354372,-0.989746,-0.083008,0.069580,-0.518799,0.946045,-0.579834,15.966797,26.220703,-3.955078
1643847092,-0.987793,-0.090088,0.065186,-0.854492,1.007080,-0.579834,15.966797,26.220703,-3.955078
1646345966,-0.983643,-0.094238,0.068604,-0.274658,0.976563,-0.518799,16.186523,26.147461,-4.028320
1648892429,-0.982422,-0.092285,0.069092,-0.183105,1.373291,-0.396729,16.186523,26.147461,-4.028320
1651687509,-0.982422,-0.097656,0.065674,-0.122070,1.434326,-0.671387,16.186523,26.147461,-4.028320
1654661460,-0.981445,-0.100342,0.078125,-0.122070,1.800537,-0.610352,16.186523,26.147461,-4.028320
1657171411,-0.984619,-0.101807,0.072998,0.488281,1.800537,-0.762939,16.186523,26.147461,-4.028320
1659674797,-0.983643,-0.100586,0.071289,0.274658,2.197266,-1.037598,16.186523,26.147461,-4.028320
1662472748,-0.987793,-0.106689,0.072510,0.427246,2.105713,-1.495361,16.186523,26.147461,-4.028320
1665295315,-0.989258,-0.104248,0.077637,0.000000,1.892090,-1.678467,16.186523,26.147461,-4.028320
1668275009,-0.989258,-0.103027,0.079590,-0.030518,2.136230,-2.319336,15.966797,26.660156,-3.515625
1670863319,-0.989258,-0.105957,0.080811,-0.457764,1.861572,-2.593994,15.966797,26.660156,-3.515625
1673507834,-0.992920,-0.104492,0.079834,-0.427246,1.678467,-2.716064,15.966797,26.660156,-3.515625
1676927324,-0.993408,-0.103271,0.081055,-0.610352,2.044678,-3.112793,15.966797,26.660156,-3.515625
1679423326,-0.989990,-0.104980,0.077148,-0.122070,1.556396,-3.295898,16.113281,26.660156,-4.248047
1681926303,-0.988770,-0.104980,0.077637,0.274658,1.708984,-3.326416,16.113281,26.660156,-4.248047
1684474407,-0.988037,-0.104492,0.082275,0.244141,1.556396,-3.265381,16.113281,26.660156,-4.248047
1687040973,-0.988037,-0.110107,0.074707,0.366211,1.647949,-3.204346,15.673828,26.367188,-3.955078
1689807745,-0.987061,-0.107666,0.077393,0.640869,1.617432,-3.265381,15.673828,26.367188,-3.955078
1692359952,-0.989014,-0.104248,0.079834,0.946045,1.495361,-3.173828,15.673828,26.367188,-3.955078
1695293288,-0.985596,-0.105469,0.074463,1.098633,1.800537,-3.051758,15.673828,26.367188,-3.955078
1698149906,-0.990234,-0.104980,0.076416,1.007080,1.495361,-3.356934,16.040039,26.293945,-4.028320
1700869087,-0.985107,-0.103271,0.075195,0.976563,1.617432,-3.143311,16.040039,26.293945,-4.028320
1703573500,-0.990479,-0.101807,0.073730,0.396729,1.647949,-3.387451,16.040039,26.293945,-4.028320
1706508887,-0.987061,-0.099609,0.072998,0.762939,1.434326,-3.265381,15.820313,26.367188,-3.955078
1709532479,-0.992432,-0.104248,0.079834,0.732422,1.495361,-2.990723,15.820313,26.367188,-3.955078
1712031763,-0.987549,-0.102295,0.078369,0.640869,1.159668,-3.204346,15.820313,26.367188,-3.955078
1714982330,-0.995117,-0.105225,0.084717,0.854492,1.525879,-3.082275,15.820313,26.367188,-3.955078
1717960383,-0.994141,-0.104492,0.082520,0.762939,1.434326,-2.807617,15.966797,26.220703,-3.955078
1721002848,-0.989746,-0.104248,0.083740,0.854492,1.342773,-2.777100,15.966797,26.220703,-3.955078
1723955055,-0.990234,-0.100098,0.078369,0.793457,1.678467,-2.624512,15.966797,26.220703,-3.955078
1726505211,-0.988037,-0.101563,0.081299,1.281738,1.464844,-2.593994,16.333008,26.293945,-3.442383
1728972085,-0.989990,-0.100830,0.077881,1.129150,1.312256,-2.136230,16.333008,26.293945,-3.442383
1731964498,-0.989990,-0.102783,0.078857,1.098633,1.770020,-1.892090,16.333008,26.293945,-3.442383
1734771884,-0.990234,-0.099365,0.081299,1.281738,1.739502,-1.831055,16.333008,26.293945,-3.442383
1737258451,-0.991699,-0.099365,0.077148,1.098633,1.922607,-1.464844,16.479492,25.854492,-4.321289
1739804094,-0.993164,-0.095459,0.078857,1.312256,1.770020,-1.068115,16.479492,25.854492,-4.321289
1742435891,-0.996582,-0.096924,0.080322,1.190186,2.014160,-1.159668,16.479492,25.854492,-4.321289
1745519791,-0.992920,-0.097656,0.084473,0.946045,1.953125,-0.793457,16.479492,25.854492,-4.321289
1748447793,-0.990967,-0.100098,0.087158,0.915527,1.770020,-0.640869,16.479492,25.854492,-4.321289
1750949128,-0.992920,-0.095703,0.081787,0.610352,2.075195,-0.610352,16.479492,25.854492,-4.321289
1753519797,-0.990479,-0.101807,0.077881,0.732422,1.953125,-0.427246,16.479492,25.854492,-4.321289
1756481441,-0.989746,-0.105713,0.081299,0.885010,1.892090,-0.396729,16.113281,26.220703,-4.101563
1758982366,-0.993408,-0.108154,0.072998,0.854492,1.922607,-0.366211,16.113281,26.220703,-4.101563
1761533342,-0.989502,-0.112793,0.077148,0.885010,2.014160,-0.274658,16.113281,26.220703,-4.101563
1764032626,-0.988525,-0.114990,0.078857,1.037598,2.014160,-0.183105,16.113281,26.220703,-4.101563
1766733757,-0.989014,-0.111084,0.071777,0.946045,2.075195,-0.427246,16.113281,26.220703,-4.101563
1769698272,-0.988037,-0.116455,0.072021,1.068115,2.105713,-0.335693,16.113281,26.220703,-4.101563
1772736634,-0.988037,-0.118164,0.072510,1.190186,2.258301,-0.823975,16.113281,26.220703,-4.101563
1775727405,-0.987061,-0.124512,0.075439,1.495361,2.105713,-0.427246,16.113281,26.220703,-4.101563
1778198382,-0.984863,-0.124512,0.070313,1.464844,2.319336,-1.007080,15.966797,26.074219,-3.222656
1780975410,-0.979004,-0.130859,0.072754,1.708984,2.166748,-0.823975,15.966797,26.074219,-3.222656
1783688437,-0.984131,-0.126221,0.071289,2.136230,2.471924,-1.251221,15.966797,26.074219,-3.222656
1786166388,-0.983398,-0.128418,0.071045,2.197266,2.380371,-1.403809,15.966797,26.074219,-3.222656
1788748544,-0.983887,-0.129639,0.070801,2.746582,2.258301,-1.647949,15.966797,26.074219,-3.222656
1791731111,-0.981689,-0.127197,0.068359,2.532959,2.838135,-1.861572,15.966797,26.074219,-3.222656
1794234908,-0.988037,-0.125000,0.075928,2.563477,2.685547,-2.563477,15.966797,26.074219,-3.222656
1797186705,-0.987793,-0.123779,0.070313,2.746582,2.563477,-2.502441,16.479492,26.293945,-3.735352
1799813579,-0.983154,-0.121826,0.075195,2.441406,2.593994,-2.655029,16.479492,26.293945,-3.735352
1802862607,-0.988037,-0.122803,0.071533,2.685547,2.838135,-2.868652,16.479492,26.293945,-3.735352
1805888661,-0.988037,-0.121826,0.071777,3.173828,2.471924,-2.899170,16.479492,26.293945,-3.735352
1808874509,-0.989258,-0.123291,0.075684,3.326416,2.746582,-2.868652,16.479492,26.293945,-3.735352
1811393486,-0.989258,-0.119873,0.084961,3.723145,2.777100,-2.655029,16.479492,26.293945,-3.735352
1814293591,-0.991455,-0.114258,0.075439,3.997803,2.380371,-2.777100,16.479492,26.293945,-3.735352
1817142003,-0.994141,-0.113525,0.078369,4.333496,2.502441,-2.441406,16.845703,26.367188,-3.808594
1819939134,-0.995117,-0.111572,0.077393,4.241943,2.288818,-2.471924,16.845703,26.367188,-3.808594
1822834316,-1.000488,-0.106201,0.083252,4.241943,1.983643,-2.532959,16.845703,26.367188,-3.808594
1825837805,-0.998291,-0.101563,0.078125,3.967285,1.800537,-2.410889,16.845703,26.367188,-3.808594
1828850731,-0.993164,-0.104004,0.076904,4.058838,1.678467,-1.983643,16.845703,26.367188,-3.808594
1831852990,-0.997559,-0.099854,0.073242,4.028320,1.495361,-1.953125,16.845703,26.367188,-3.808594
1834851556,-0.992676,-0.093018,0.083008,3.509521,1.037598,-1.800537,16.845703,26.367188,-3.808594
1837371353,-0.993408,-0.091064,0.077393,3.509521,0.946045,-1.434326,16.552734,26.220703,-3.955078
1840337920,-0.995850,-0.084961,0.074219,3.295898,0.549316,-1.190186,16.552734,26.220703,-3.955078
1843334435,-0.988770,-0.082031,0.071045,2.960205,0.396729,-0.946045,16.552734,26.220703,-3.955078
1846367053,-0.990967,-0.083252,0.073486,2.349854,0.152588,-0.976563,16.552734,26.220703,-3.955078
1848875773,-0.985352,-0.072510,0.073730,1.983643,0.274658,-0.610352,16.552734,26.220703,-3.955078
1851373416,-0.988281,-0.080566,0.069824,1.159668,-0.274658,-0.091553,16.552734,26.220703,-3.955078
1854310854,-0.981445,-0.078857,0.068359,1.129150,0.183105,0.061035,16.552734,26.220703,-3.955078
1857286447,-0.979492,-0.082764,0.063477,0.762939,0.152588,0.366211,15.820313,26.806641,-3.662109
1859887474,-0.972900,-0.088867,0.053955,0.396729,0.305176,0.793457,15.820313,26.806641,-3.662109
1862834348,-0.969727,-0.084961,0.052734,0.549316,0.366211,1.403809,15.820313,26.806641,-3.662109
1865322145,-0.970703,-0.095703,0.054932,0.183105,0.732422,1.586914,15.820313,26.806641,-3.662109
1868307994,-0.971191,-0.093994,0.050781,0.152588,1.159668,1.922607,15.820313,26.806641,-3.662109
1871213843,-0.969482,-0.096680,0.052490,0.183105,1.464844,2.410889,15.820313,26.806641,-3.662109
1874303896,-0.967285,-0.101807,0.051270,0.061035,1.922607,2.410889,15.820313,26.806641,-3.662109
1877291386,-0.972168,-0.102783,0.046387,0.030518,2.166748,2.777100,16.625977,26.147461,-3.881836
1880230055,-0.972900,-0.105957,0.052734,0.000000,2.655029,2.380371,16.625977,26.147461,-3.881836
1882805237,-0.977539,-0.112793,0.052002,-0.213623,2.685547,2.685547,16.625977,26.147461,-3.881836
1885303700,-0.980957,-0.111572,0.060547,-0.488281,2.990723,2.319336,16.625977,26.147461,-3.881836
1887961754,-0.978516,-0.113037,0.062744,-0.732422,2.990723,2.227783,16.625977,26.147461,-3.881836
1890712525,-0.981201,-0.118408,0.072021,-0.671387,3.326416,1.739502,16.625977,26.147461,-3.881836
1893331194,-0.987305,-0.122559,0.077637,-0.579834,3.204346,1.586914,16.625977,26.147461,-3.881836
1896189043,-0.986816,-0.127197,0.076904,-0.488281,3.112793,1.159668,16.259766,26.513672,-3.662109
1898636634,-0.985596,-0.129150,0.079346,-0.274658,2.990723,0.793457,16.259766,26.513672,-3.662109
1901136329,-0.992920,-0.131104,0.081787,0.305176,3.021240,0.671387,16.259766,26.513672,-3.662109
1903710690,-0.991211,-0.135498,0.080566,0.579834,3.082275,0.213623,16.259766,26.513672,-3.662109
1906198897,-0.988525,-0.138672,0.090088,1.098633,2.410889,-0.061035,16.259766,26.513672,-3.662109
1908760130,-0.995605,-0.140625,0.081055,1.464844,2.349854,-0.213623,16.259766,26.513672,-3.662109
1911727517,-0.992188,-0.135254,0.085205,1.922607,2.380371,-0.396729,16.259766,26.513672,-3.662109
1914718288,-0.996582,-0.139404,0.086670,2.532959,1.647949,-0.122070,16.259766,26.513672,-3.662109
1917549881,-0.997070,-0.130859,0.083740,3.204346,1.708984,-0.854492,16.479492,27.172852,-3.442383
1920566909,-0.999756,-0.127930,0.086426,3.662109,1.281738,-0.976563,16.479492,27.172852,-3.442383
1923594603,-0.998535,-0.121582,0.085938,3.814697,1.342773,-0.915527,16.479492,27.172852,-3.442383
1926587426,-0.997559,-0.118652,0.080322,4.394531,0.671387,-1.068115,16.479492,27.172852,-3.442383
1929216352,-1.000488,-0.112549,0.079590,4.333496,0.366211,-1.190186,16.479492,27.172852,-3.442383
1931768969,-0.997070,-0.107910,0.073486,4.302979,0.427246,-1.556396,16.479492,27.172852,-3.442383
1934620254,-0.994873,-0.098877,0.067871,3.997803,0.305176,-1.373291,16.479492,27.172852,-3.442383
1937565487,-0.995605,-0.097656,0.072266,3.845215,-0.030518,-1.617432,15.747070,26.293945,-4.174805
1940139848,-0.997559,-0.088379,0.073975,3.326416,-0.335693,-1.495361,15.747070,26.293945,-4.174805
1942598517,-0.994629,-0.089600,0.067871,3.509521,-0.091553,-1.434326,15.747070,26.293945,-4.174805
1945654929,-0.994141,-0.083496,0.066162,3.265381,-0.427246,-1.220703,15.747070,26.293945,-4.174805
1948351547,-0.998535,-0.085205,0.062988,2.624512,-0.213623,-1.251221,15.747070,26.293945,-4.174805
1950899241,-0.992676,-0.085449,0.057617,3.234863,-0.244141,-1.007080,15.747070,26.293945,-4.174805
1953656987,-0.996826,-0.082031,0.065918,2.349854,0.091553,-0.854492,15.747070,26.293945,-4.174805
1956601810,-0.996338,-0.077881,0.067139,2.136230,-0.213623,-0.366211,16.699219,27.099609,-3.808594
1959367351,-0.997070,-0.081787,0.060059,2.014160,-0.366211,-0.183105,16.699219,27.099609,-3.808594
1961824789,-0.996582,-0.082764,0.068848,1.251221,-0.061035,-0.152588,16.699219,27.099609,-3.808594
1964367560,-0.995117,-0.082520,0.066650,1.403809,0.061035,0.030518,16.699219,27.099609,-3.808594
1967376793,-0.992432,-0.083984,0.071777,1.190186,0.061035,0.335693,15.966797,26.074219,-4.101563
1969884282,-0.991943,-0.085449,0.064697,0.976563,0.091553,0.488281,15.966797,26.074219,-4.101563
1972518951,-0.994385,-0.090332,0.076904,0.976563,0.000000,0.671387,15.966797,26.074219,-4.101563
1975482236,-0.993408,-0.092285,0.078857,0.854492,0.213623,0.823975,16.186523,26.440430,-4.028320
1978045520,-0.987305,-0.092285,0.073730,0.976563,0.122070,0.701904,16.186523,26.440430,-4.028320
1980532086,-0.988770,-0.094482,0.064453,0.732422,0.274658,0.671387,16.186523,26.440430,-4.028320
1982980088,-0.987549,-0.099854,0.075684,0.335693,0.488281,0.946045,16.186523,26.440430,-4.028320
1985979885,-0.989746,-0.100830,0.073730,0.610352,0.183105,0.762939,15.820313,26.367188,-3.662109
1988532503,-0.980713,-0.104736,0.064941,0.549316,0.823975,0.549316,15.820313,26.367188,-3.662109
1991483480,-0.977295,-0.107666,0.067139,0.518799,0.854492,0.732422,15.820313,26.367188,-3.662109
1994014764,-0.974854,-0.109863,0.064941,1.098633,0.946045,0.518799,15.820313,26.367188,-3.662109
1996518561,-0.977539,-0.112549,0.063232,0.732422,1.342773,0.244141,16.552734,26.806641,-3.808594
1999075281,-0.977295,-0.114258,0.068115,0.762939,1.281738,0.213623,16.552734,26.806641,-3.808594
2002095591,-0.982666,-0.112549,0.067383,0.976563,1.708984,-0.030518,16.552734,26.806641,-3.808594
2004635901,-0.979248,-0.116943,0.067139,1.495361,1.861572,-0.091553,16.113281,26.220703,-3.808594
2007184826,-0.979004,-0.118164,0.069824,1.464844,1.831055,-0.488281,16.113281,26.220703,-3.515625
2009687802,-0.984375,-0.114502,0.070557,1.770020,1.953125,-0.366211,16.113281,26.220703,-3.515625
2012199804,-0.985352,-0.115967,0.078125,1.831055,2.014160,-0.885010,16.113281,26.220703,-3.515625
2014755704,-0.990479,-0.114502,0.080811,2.349854,1.892090,-1.098633,16.113281,26.220703,-3.515625
2017730065,-0.992432,-0.122803,0.073242,2.227783,1.861572,-1.220703,16.113281,26.220703,-3.515625
2020270375,-0.993652,-0.121582,0.078857,2.990723,2.105713,-1.281738,16.113281,26.220703,-3.515625
2023330890,-0.994385,-0.120605,0.082031,3.540039,1.922607,-1.647949,16.113281,26.220703,-3.515625
2026818893,-0.993164,-0.122070,0.088135,4.119873,1.617432,-1.861572,16.259766,26.220703,-4.101563
2029395306,-0.998779,-0.119873,0.089111,4.425049,1.403809,-2.258301,16.259766,26.220703,-4.101563
2032442693,-0.998535,-0.120850,0.083008,5.187988,1.342773,-1.922607,16.259766,26.220703,-4.101563
2035515106,-0.999512,-0.114502,0.085693,4.943848,1.159668,-2.563477,16.259766,26.220703,-4.101563
2037966390,-1.001953,-0.109619,0.087891,5.218506,0.762939,-2.624512,16.259766,26.220703,-4.101563
2040917366,-1.001709,-0.100586,0.092041,4.974365,0.793457,-2.929688,16.259766,26.220703,-4.101563
2043367420,-0.998291,-0.099365,0.082520,5.126953,0.366211,-3.082275,16.259766,26.220703,-4.101563
2045885986,-0.996094,-0.095215,0.085938,4.821777,0.427246,-2.929688,15.966797,26.220703,-4.248047
2048385270,-0.995850,-0.087402,0.081543,4.577637,0.122070,-3.021240,15.966797,26.220703,-4.248047
2051031836,-0.996094,-0.088135,0.077881,4.455566,0.274658,-2.716064,15.966797,26.220703,-4.248047
2053591428,-0.996582,-0.085449,0.076660,4.119873,0.366211,-2.624512,15.966797,26.220703,-4.248047
2056545687,-0.993164,-0.076416,0.074219,3.936768,0.213623,-2.136230,15.966797,26.220703,-4.248047
2059098715,-0.992432,-0.075684,0.067139,3.875732,0.518799,-2.197266,15.966797,26.220703,-4.248047
2061597178,-0.988281,-0.074951,0.060547,3.631592,0.274658,-1.739502,15.966797,26.220703,-4.248047
2064143642,-0.990723,-0.072266,0.061768,3.295898,0.701904,-1.159668,15.966797,26.220703,-4.248047
2066654413,-0.988770,-0.072021,0.059814,2.960205,1.037598,-1.129150,16.406250,25.927734,-4.248047
2069204159,-0.988525,-0.074463,0.063965,2.532959,1.190186,-0.762939,16.406250,25.927734,-4.248047
2071700981,-0.987793,-0.075195,0.063965,2.136230,1.251221,-0.427246,16.406250,25.927734,-4.248047
2074628984,-0.985352,-0.073730,0.064453,1.800537,1.678467,-0.122070,16.406250,25.927734,-4.248047
2077533191,-0.993652,-0.074463,0.064697,1.068115,1.770020,0.213623,16.406250,25.927734,-4.248047
2080027552,-0.990723,-0.075439,0.066406,0.671387,1.617432,0.244141,16.406250,25.927734,-4.248047
2082540785,-0.992432,-0.079102,0.063232,0.030518,1.861572,0.396729,16.406250,25.927734,-4.248047
2085079864,-0.996094,-0.081543,0.076172,-0.427246,2.014160,0.396729,15.673828,26.953125,-4.394531
2088057508,-0.991943,-0.087158,0.072998,-0.732422,2.014160,0.396729,15.673828,26.953125,-4.394531
2091095869,-0.990479,-0.083984,0.075928,-0.976563,2.349854,0.244141,15.673828,26.953125,-4.394531
2094063256,-0.993164,-0.093750,0.075928,-1.190186,2.563477,0.305176,15.673828,26.953125,-4.394531
2096579771,-0.990479,-0.102783,0.075195,-1.281738,2.471924,0.762939,15.673828,26.953125,-4.394531
2099551671,-0.994385,-0.109375,0.078369,-0.976563,2.868652,0.701904,15.673828,26.953125,-4.394531
2102607673,-0.993896,-0.112549,0.075928,-0.640869,2.655029,0.610352,15.673828,26.953125,-4.394531
2105538548,-0.993164,-0.115479,0.075195,-0.457764,3.326416,0.488281,16.406250,26.220703,-3.515625
2108069011,-0.994873,-0.117432,0.083496,-0.396729,3.234863,0.518799,16.406250,26.220703,-3.515625
2111097116,-0.995117,-0.118164,0.083740,0.091553,2.990723,0.061035,16.406250,26.220703,-3.515625
2113592298,-0.993896,-0.123047,0.083496,0.305176,3.295898,-0.213623,16.406250,26.220703,-3.515625
2116540403,-0.993652,-0.125732,0.083984,0.061035,3.204346,-0.549316,16.406250,26.220703,-3.515625
2119518046,-0.995361,-0.127930,0.083740,0.549316,2.990723,-1.129150,16.406250,26.220703,-3.515625
2122530151,-0.995361,-0.129150,0.085938,0.701904,3.082275,-1.281738,16.406250,26.220703,-3.515625
2125504513,-0.988281,-0.132324,0.081543,1.129150,2.899170,-1.617432,16.333008,26.147461,-4.467773
2128018156,-0.992432,-0.131348,0.076172,1.281738,2.685547,-1.953125,16.333008,26.147461,-4.467773
2131056517,-0.990723,-0.132080,0.074463,1.586914,2.593994,-2.349854,16.333008,26.147461,-4.467773
2134053853,-0.989990,-0.133545,0.072754,1.953125,2.685547,-2.807617,16.333008,26.147461,-4.467773
2136992522,-0.992676,-0.130371,0.070313,1.892090,2.532959,-2.929688,16.333008,26.147461,-4.467773
2139539396,-0.987061,-0.125732,0.072021,2.136230,2.136230,-3.204346,16.333008,26.147461,-4.467773
2142503501,-0.990967,-0.120850,0.074463,2.258301,2.410889,-3.112793,16.333008,26.147461,-4.467773
2145966068,-0.993408,-0.122559,0.065918,2.563477,2.166748,-3.356934,16.333008,26.147461,-4.028320
2148486685,-1.002441,-0.119385,0.068115,2.502441,2.014160,-3.051758,16.333008,26.147461,-4.028320
2150992944,-1.001221,-0.112305,0.069336,2.655029,1.953125,-3.051758,16.333008,26.147461,-4.028320
2153594792,-1.002197,-0.110107,0.070313,2.593994,1.708984,-2.716064,16.333008,26.147461,-4.028320
2156596641,-0.999268,-0.107910,0.066162,2.563477,1.922607,-2.563477,16.333008,26.147461,-4.028320
2159163617,-1.006592,-0.104736,0.070801,2.838135,1.647949,-2.288818,16.333008,26.147461,-4.028320
2162225363,-1.004150,-0.100342,0.074951,3.082275,1.770020,-2.227783,16.333008,26.147461,-4.028320
2164713571,-1.006836,-0.103271,0.070801,2.563477,1.434326,-1.831055,16.625977,26.586914,-4.174805
2167214906,-1.008545,-0.097656,0.070557,2.746582,1.098633,-1.708984,16.625977,26.586914,-4.174805
2169989883,-1.009277,-0.097900,0.076904,2.380371,1.098633,-1.403809,16.625977,26.586914,-4.174805
2173036039,-1.007813,-0.095703,0.083008,2.075195,0.793457,-1.342773,16.625977,26.586914,-4.174805
2175989477,-1.006836,-0.098145,0.078125,2.593994,0.366211,-1.159668,16.625977,26.586914,-4.174805
2178492043,-1.007080,-0.098145,0.072754,1.770020,0.457764,-0.885010,16.625977,26.586914,-4.174805
2181438918,-1.004639,-0.095215,0.076416,1.800537,0.152588,-0.823975,16.625977,26.586914,-4.174805
2184398100,-1.002441,-0.098633,0.072266,1.739502,0.000000,-0.244141,16.113281,26.367188,-3.808594
2187375333,-1.000488,-0.105957,0.070557,2.105713,-0.091553,-0.488281,16.113281,26.367188,-3.808594
2189873796,-0.996826,-0.107910,0.069580,1.525879,0.305176,0.061035,16.113281,26.367188,-3.808594
2192410824,-0.991699,-0.111084,0.070313,1.403809,-0.152588,0.122070,16.113281,26.367188,-3.808594
2194906826,-0.994629,-0.108643,0.067871,1.434326,0.122070,-0.030518,16.113281,26.367188,-3.808594
2197920572,-0.990723,-0.113037,0.064941,1.434326,0.244141,0.091553,16.113281,26.367188,-3.808594
2200906421,-0.987305,-0.116943,0.070068,1.647949,0.122070,0.122070,16.113281,26.367188,-3.808594
2203557500,-0.984619,-0.123535,0.068848,2.014160,0.427246,0.274658,16.113281,26.367188,-3.808594
2206504374,-0.985840,-0.127686,0.065918,1.861572,0.610352,0.152588,15.820313,26.220703,-3.955078
2209008171,-0.980957,-0.133057,0.066895,2.166748,0.396729,0.030518,15.820313,26.220703,-3.955078
2212016173,-0.984619,-0.128418,0.060547,2.105713,0.701904,0.335693,15.820313,26.220703,-3.955078
2214569201,-0.987061,-0.132324,0.066895,2.532959,1.037598,0.030518,15.820313,26.220703,-3.955078
2217515665,-0.990479,-0.130371,0.065430,2.471924,1.220703,-0.305176,15.820313,26.220703,-3.955078
2220531463,-0.985840,-0.135254,0.061279,2.593994,1.159668,-0.274658,15.820313,26.220703,-3.955078
2223099259,-0.992432,-0.138428,0.058594,2.929688,1.251221,-0.762939,15.820313,26.220703,-3.955078
2226070339,-0.992920,-0.132568,0.069336,3.112793,1.647949,-1.007080,16.113281,26.367188,-4.394531
2229050444,-0.995605,-0.137207,0.058350,3.143311,1.068115,-1.220703,16.113281,26.367188,-4.394531
2231993215,-0.994385,-0.135742,0.064209,3.082275,1.586914,-1.892090,16.113281,26.367188,-4.394531
2234451884,-0.999023,-0.134766,0.072021,3.601074,1.495361,-2.044678,15.747070,26.293945,-3.881836
2237002450,-1.001465,-0.134033,0.079102,3.540039,0.976563,-2.319336,15.747070,26.293945,-3.881836
2239540299,-1.001465,-0.132080,0.076660,3.723145,0.946045,-2.441406,15.747070,26.293945,-3.881836
2242502352,-1.001709,-0.129639,0.074219,4.211426,0.793457,-2.441406,15.747070,26.293945,-3.881836
2245508714,-1.006348,-0.127441,0.079590,4.608154,0.427246,-2.563477,16.552734,26.513672,-4.248047
2247982972,-1.004150,-0.127930,0.084717,4.760742,0.183105,-2.258301,16.552734,26.513672,-4.248047
2250529846,-1.006592,-0.118652,0.084473,5.126953,-0.183105,-2.532959,16.552734,26.513672,-4.248047
2253508720,-1.009521,-0.119385,0.083740,5.462646,-0.701904,-1.983643,16.552734,26.513672,-4.248047
2256458466,-1.007324,-0.113037,0.091553,5.584717,-1.007080,-1.647949,16.186523,26.586914,-4.321289
2258981956,-1.005615,-0.112061,0.089600,5.920410,-1.525879,-1.556396,16.186523,26.586914,-4.321289
2261512829,-1.004150,-0.106445,0.083984,5.920410,-1.556396,-1.464844,16.186523,26.586914,-4.321289
2264512217,-1.005371,-0.104736,0.084229,5.950928,-1.922607,-1.129150,16.040039,26.147461,-3.149414
2267020526,-1.000977,-0.103516,0.091797,6.011963,-1.953125,-0.701904,16.040039,26.147461,-3.149414
2269534169,-0.997803,-0.100342,0.084473,6.011963,-2.563477,-0.732422,16.040039,26.147461,-3.149414
2272514274,-0.998047,-0.101318,0.081055,6.378174,-2.471924,-0.396729,16.040039,26.147461,-3.149414
2275598174,-0.991699,-0.095947,0.077881,6.072998,-2.532959,-0.183105,15.966797,26.074219,-3.808594
2278524946,-0.990234,-0.092041,0.075928,5.554199,-2.441406,0.091553,15.966797,26.074219,-3.808594
2281507102,-0.991211,-0.093018,0.071289,5.249023,-2.471924,0.396729,15.966797,26.074219,-3.808594
2284471207,-0.989746,-0.088135,0.073975,4.882813,-2.105713,0.366211,16.552734,26.513672,-4.248047
2286918799,-0.989014,-0.088623,0.071289,4.577637,-2.105713,0.732422,16.552734,26.513672,-4.248047
2289635109,-0.984131,-0.089355,0.068848,4.211426,-1.831055,0.488281,16.552734,26.513672,-4.248047
2292375214,-0.987305,-0.093018,0.063232,3.326416,-1.586914,0.885010,16.552734,26.513672,-4.248047
2294886806,-0.981689,-0.094727,0.068848,3.448486,-1.281738,0.946045,16.552734,27.099609,-3.808594
2297389372,-0.985352,-0.093994,0.061035,3.265381,-1.281738,0.854492,16.552734,27.099609,-3.808594
2299889476,-0.978760,-0.096924,0.071045,2.777100,-0.976563,0.732422,16.552734,27.099609,-3.808594
2302464658,-0.976807,-0.100342,0.066895,2.807617,-0.579834,0.976563,16.552734,27.099609,-3.808594
2305459532,-0.981201,-0.099854,0.067139,2.410889,-0.579834,1.007080,16.259766,26.660156,-4.248047
2307942816,-0.980469,-0.100342,0.072510,2.471924,-0.152588,0.762939,16.259766,26.660156,-4.248047
2310500357,-0.982422,-0.098877,0.079102,1.861572,0.122070,0.793457,16.259766,26.660156,-4.248047
2313508770,-0.984131,-0.104736,0.077393,2.166748,0.122070,1.068115,16.259766,26.660156,-4.248047
2315993284,-0.983887,-0.101318,0.066406,1.861572,0.488281,0.701904,16.113281,26.220703,-3.955078
2318491748,-0.979492,-0.102783,0.069092,1.953125,0.518799,0.671387,16.113281,26.220703,-3.955078
2321194519,-0.982910,-0.105713,0.078125,2.136230,0.518799,0.823975,16.113281,26.220703,-3.955078
2323943240,-0.982910,-0.108887,0.068359,1.983643,1.007080,0.640869,16.479492,26.147461,-3.881836
2326596780,-0.982910,-0.109863,0.075684,2.136230,1.220703,0.579834,16.479492,26.147461,-3.881836
2329417706,-0.983154,-0.108643,0.074707,2.563477,0.976563,0.854492,16.479492,26.147461,-3.881836
2331916580,-0.983887,-0.108887,0.076904,2.685547,1.403809,0.610352,16.479492,26.147461,-3.881836
2334459761,-0.985352,-0.113281,0.075195,2.929688,1.220703,0.457764,16.333008,26.733398,-3.588867
2337487866,-0.981445,-0.113037,0.081055,2.990723,1.342773,0.610352,16.333008,26.733398,-3.588867
2339938330,-0.984863,-0.114502,0.075195,3.540039,1.678467,0.549316,16.333008,26.733398,-3.588867
2342526229,-0.988770,-0.112061,0.078369,3.448486,1.403809,0.579834,16.333008,26.733398,-3.588867
2345453001,-0.988525,-0.111816,0.072998,3.540039,1.831055,0.366211,16.333008,26.733398,-3.588867
2348353106,-0.993164,-0.109619,0.077637,3.417969,1.495361,0.183105,16.333008,26.733398,-3.588867
2350916390,-0.997559,-0.102295,0.076904,3.356934,1.525879,0.030518,16.333008,26.733398,-3.588867
2353851777,-0.998047,-0.103516,0.078613,2.929688,1.159668,-0.305176,15.966797,26.220703,-4.101563
2356350651,-0.996338,-0.099854,0.081543,3.021240,1.159668,-0.244141,15.966797,26.220703,-4.101563
2358952089,-0.996582,-0.099854,0.080322,3.051758,0.946045,-0.274658,15.966797,26.220703,-4.101563
2361967066,-1.000244,-0.099609,0.078857,2.777100,1.007080,-0.518799,15.966797,26.220703,-4.101563
2364542658,-1.007813,-0.095947,0.084961,2.868652,0.549316,-0.335693,15.966797,26.220703,-4.101563
2367638045,-1.003662,-0.096680,0.085449,3.204346,0.427246,-0.274658,15.966797,26.220703,-4.101563
2370647688,-1.002686,-0.099609,0.083252,3.173828,0.457764,0.152588,15.966797,26.220703,-4.101563
2373603588,-1.005371,-0.099609,0.090088,3.570557,0.213623,0.274658,16.113281,26.220703,-4.101563
2377078052,-1.001465,-0.096436,0.091309,3.784180,0.183105,0.396729,16.113281,26.220703,-4.101563
2379576106,-1.001709,-0.097412,0.085693,4.028320,-0.122070,0.549316,16.113281,26.220703,-4.101563
2382573442,-0.999756,-0.092041,0.088867,3.967285,-0.152588,0.732422,16.113281,26.220703,-4.101563
2385538777,-1.002197,-0.095703,0.085449,4.272461,-0.671387,0.885010,16.113281,26.220703,-4.101563
2388527908,-0.994873,-0.091309,0.087402,4.119873,-0.366211,0.823975,16.113281,26.220703,-4.101563
2391492834,-0.993408,-0.093018,0.091309,3.936768,-0.579834,0.457764,16.113281,26.220703,-4.101563
2394405656,-0.989990,-0.100342,0.087891,4.089355,-0.366211,0.579834,16.406250,26.074219,-4.248047
2396900428,-0.987061,-0.095703,0.083496,3.875732,-0.488281,0.427246,16.406250,26.074219,-4.248047
2399380020,-0.984863,-0.101563,0.073975,4.272461,-0.366211,0.488281,16.406250,26.074219,-4.248047
2401924842,-0.984131,-0.098633,0.076660,3.845215,-0.061035,0.335693,16.406250,26.074219,-4.248047
2404932024,-0.981934,-0.094727,0.072754,3.936768,0.152588,0.213623,16.406250,26.074219,-4.248047
2407506385,-0.979980,-0.093506,0.065674,3.967285,0.244141,0.213623,16.406250,26.074219,-4.248047
2410048746,-0.979004,-0.093750,0.063965,3.814697,0.274658,0.030518,16.406250,26.074219,-4.248047
2412966902,-0.977783,-0.091797,0.069824,3.723145,0.610352,-0.152588,16.406250,26.074219,-4.248047
2415468238,-0.973633,-0.090820,0.069336,3.845215,0.762939,0.000000,16.406250,26.513672,-4.101563
2417917060,-0.975098,-0.094971,0.063965,3.448486,0.885010,-0.183105,16.406250,26.513672,-4.101563
2420736345,-0.978027,-0.096924,0.062744,3.692627,1.159668,-0.213623,16.406250,26.513672,-4.101563
2423473578,-0.981201,-0.096924,0.055176,3.662109,1.007080,-0.335693,16.406250,26.513672,-4.101563
2426124657,-0.981934,-0.096436,0.061279,3.479004,1.464844,-0.305176,16.406250,26.513672,-4.101563
2429046095,-0.982422,-0.092285,0.064697,3.417969,1.647949,-0.335693,16.406250,26.513672,-4.101563
2431603225,-0.984375,-0.089600,0.060791,3.021240,1.770020,-0.549316,16.406250,26.513672,-4.101563
2434529997,-0.983154,-0.087646,0.063965,3.112793,1.739502,-0.732422,16.406250,25.634766,-3.662109
2437490820,-0.989258,-0.085205,0.066406,2.807617,2.136230,-0.793457,16.406250,25.634766,-3.662109
2439969591,-0.986572,-0.090820,0.067627,2.716064,2.105713,-0.701904,16.406250,25.634766,-3.662109
2443011645,-0.986084,-0.094971,0.064941,2.716064,2.227783,-1.068115,16.406250,25.634766,-3.662109
2445977391,-0.984619,-0.095459,0.071777,2.746582,2.288818,-0.793457,16.406250,25.634766,-3.662109
2448490214,-0.988037,-0.094727,0.066650,3.051758,2.441406,-0.885010,16.406250,25.634766,-3.662109
2450977190,-0.986816,-0.092773,0.068604,3.112793,2.716064,-0.976563,16.406250,25.634766,-3.662109
2453478525,-0.983643,-0.095215,0.080322,3.112793,2.868652,-0.854492,15.527344,26.513672,-4.101563
2456001194,-0.986328,-0.095215,0.074219,3.417969,2.685547,-1.220703,15.527344,26.513672,-4.101563
2458550119,-0.987549,-0.097900,0.073486,2.990723,2.960205,-1.098633,15.527344,26.513672,-4.101563
2461016173,-0.984863,-0.093750,0.071777,2.899170,2.807617,-1.434326,15.527344,26.513672,-4.101563
2464021303,-0.986572,-0.093506,0.074951,2.685547,3.082275,-1.586914,15.527344,26.513672,-4.101563
2467011665,-0.987305,-0.100098,0.075928,2.960205,3.265381,-1.708984,15.527344,26.513672,-4.101563
2469464590,-0.985840,-0.105713,0.073486,2.685547,3.204346,-1.861572,15.527344,26.513672,-4.101563
2471940900,-0.983887,-0.101074,0.072266,3.021240,3.479004,-1.770020,15.527344,26.513672,-4.101563
2474466440,-0.984863,-0.102539,0.073730,2.777100,3.387451,-1.861572,16.113281,26.367188,-4.101563
2477446955,-0.984619,-0.104492,0.077637,3.082275,3.906250,-1.678467,16.113281,26.367188,-4.101563
2480299881,-0.984619,-0.105713,0.069336,3.601074,3.448486,-1.770020,16.113281,26.367188,-4.101563
2482798344,-0.986084,-0.098389,0.072998,3.570557,3.753662,-2.014160,16.113281,26.367188,-4.101563
2485332090,-0.986084,-0.098633,0.072998,3.417969,3.723145,-1.922607,16.113281,26.367188,-4.101563
2487995067,-0.991455,-0.094971,0.069092,3.784180,3.967285,-1.983643,16.113281,26.367188,-4.101563
2490548505,-0.988770,-0.092041,0.061035,3.082275,4.180908,-2.075195,16.113281,26.367188,-4.101563
2493990559,-0.990723,-0.094482,0.061768,3.326416,4.028320,-2.105713,16.186523,26.293945,-3.881836
2496938253,-0.991455,-0.091309,0.067871,2.471924,4.089355,-2.441406,16.186523,26.293945,-3.881836
2499460512,-0.985596,-0.092285,0.061279,2.471924,4.425049,-2.319336,16.186523,26.293945,-3.881836
2502006155,-0.987061,-0.095215,0.058350,2.166748,4.455566,-2.441406,16.186523,26.293945,-3.881836
2504507901,-0.986572,-0.095459,0.060059,2.075195,4.394531,-2.502441,16.186523,26.293945,-3.881836
2507487595,-0.990967,-0.096680,0.054932,2.288818,4.699707,-2.532959,16.186523,26.293945,-3.881836
2510530059,-0.991455,-0.096191,0.051270,2.014160,4.760742,-2.563477,16.186523,26.293945,-3.881836
2513112215,-0.993164,-0.103027,0.057861,2.197266,4.699707,-2.685547,15.673828,26.074219,-3.515625
2516179295,-0.996338,-0.101074,0.059082,2.258301,5.065918,-2.777100,15.673828,26.074219,-3.515625
2518674066,-0.994385,-0.095215,0.062500,2.136230,4.943848,-2.716064,15.673828,26.074219,-3.515625
2521221350,-0.995605,-0.100830,0.058838,2.166748,4.974365,-2.807617,15.673828,26.074219,-3.515625
2523722275,-1.000488,-0.103271,0.071045,2.319336,4.882813,-2.777100,15.673828,26.074219,-3.515625
2526685970,-0.997559,-0.099854,0.072510,2.532959,4.913330,-2.960205,15.673828,26.074219,-3.515625
2529132741,-0.996826,-0.097900,0.073486,1.922607,4.486084,-2.838135,15.673828,26.074219,-3.515625
2532013154,-0.997803,-0.095215,0.077637,2.075195,4.241943,-2.899170,15.673828,26.074219,-3.515625
2534685977,-0.997803,-0.100098,0.080566,1.983643,4.333496,-3.173828,16.113281,27.099609,-4.248047
2537196748,-0.997559,-0.102783,0.071289,1.800537,3.875732,-3.143311,16.113281,27.099609,-4.248047
2540217879,-0.995605,-0.101563,0.072754,1.861572,3.845215,-3.326416,16.113281,27.099609,-4.248047
2543251317,-0.987549,-0.101074,0.064697,1.892090,3.631592,-3.173828,16.113281,27.099609,-4.248047
2546236345,-0.991943,-0.103760,0.066406,1.953125,3.753662,-2.868652,16.113281,27.099609,-4.248047
2548737681,-0.984131,-0.098145,0.062744,2.044678,3.723145,-2.990723,16.113281,27.099609,-4.248047
2551279221,-0.984863,-0.101074,0.060547,2.014160,3.814697,-2.838135,16.113281,27.099609,-4.248047
2553745685,-0.991211,-0.101318,0.056641,2.563477,3.662109,-3.021240,15.893555,26.293945,-4.028320
2556761892,-0.987305,-0.100830,0.055176,2.014160,4.058838,-2.716064,15.893555,26.293945,-4.028320
2559328869,-0.988281,-0.104492,0.055664,1.953125,4.180908,-2.807617,15.893555,26.293945,-4.028320
2562302410,-0.990479,-0.108154,0.058838,2.014160,3.936768,-2.655029,15.893555,26.293945,-4.028320
2564785283,-0.988770,-0.108643,0.052490,1.739502,4.119873,-2.777100,15.893555,26.293945,-4.028320
2567319439,-0.992676,-0.103516,0.054199,1.892090,4.150391,-2.593994,15.893555,26.293945,-4.028320
2570321288,-0.993652,-0.110840,0.057129,1.220703,3.936768,-2.655029,15.893555,26.293945,-4.028320
2573350624,-0.995117,-0.112549,0.052002,1.434326,3.753662,-2.319336,16.333008,26.440430,-4.028320
2576365601,-0.996582,-0.107910,0.055420,1.403809,3.967285,-2.258301,16.333008,26.440430,-4.028320
2579320680,-0.997559,-0.117676,0.055420,1.434326,3.662109,-2.166748,16.333008,26.440430,-4.028320
2581870836,-1.001221,-0.109863,0.053955,1.251221,3.997803,-1.892090,16.333008,26.440430,-4.028320
2584819761,-0.998779,-0.116455,0.065674,1.403809,3.845215,-2.044678,16.333008,26.440430,-4.028320
2587321917,-1.000488,-0.120361,0.059570,1.800537,3.662109,-2.105713,16.333008,26.440430,-4.028320
2590336894,-1.002930,-0.120117,0.060547,1.251221,3.662109,-1.892090,16.333008,26.440430,-4.028320
2593857307,-0.997070,-0.121826,0.058350,1.800537,3.448486,-1.831055,15.747070,26.586914,-4.028320
2596797617,-0.999512,-0.120605,0.063232,1.708984,3.601074,-1.892090,15.747070,26.586914,-4.028320
2599282543,-1.000244,-0.125977,0.059814,1.983643,3.112793,-1.739502,15.747070,26.586914,-4.028320
2601783878,-1.000000,-0.126709,0.059082,1.831055,3.326416,-2.044678,16.186523,26.586914,-4.028320
2604331572,-1.001465,-0.126465,0.061768,1.953125,3.082275,-2.136230,16.186523,26.000977,-3.442383
2607291575,-1.004150,-0.129395,0.063721,2.441406,3.021240,-2.136230,16.186523,26.000977,-3.442383
2609900397,-1.003418,-0.125244,0.060059,2.380371,3.082275,-2.471924,16.186523,26.000977,-3.442383
2612848092,-1.004883,-0.124756,0.065430,2.258301,2.807617,-2.166748,16.406250,26.367188,-4.394531
2615798248,-1.003418,-0.117920,0.060303,2.593994,2.502441,-2.166748,16.406250,26.367188,-4.394531
2618295481,-1.008301,-0.121094,0.070801,2.563477,2.105713,-2.166748,16.406250,26.367188,-4.394531
2620809535,-1.006348,-0.121582,0.062256,2.716064,2.136230,-2.319336,16.406250,26.367188,-4.394531
2623319896,-1.003906,-0.120117,0.064697,2.502441,1.983643,-2.288818,15.820313,26.660156,-4.101563
2625862257,-1.000732,-0.122070,0.071533,2.960205,1.708984,-2.044678,15.820313,26.660156,-4.101563
2628362771,-1.003662,-0.121094,0.063232,2.960205,1.403809,-1.953125,15.820313,26.660156,-4.101563
2630994158,-1.008301,-0.122070,0.070801,3.143311,1.068115,-1.861572,15.820313,26.660156,-4.101563
2633821648,-1.004150,-0.116943,0.072021,3.417969,1.464844,-1.251221,16.552734,26.513672,-3.662109
2636823907,-1.008789,-0.118896,0.070068,3.845215,1.281738,-1.373291,16.552734,26.513672,-3.662109
2639797858,-1.008301,-0.112061,0.064453,4.058838,0.915527,-1.098633,16.552734,26.513672,-3.662109
2642776732,-1.006836,-0.109863,0.073486,3.845215,0.518799,-1.129150,16.113281,26.806641,-3.955078
2645801965,-1.007080,-0.105957,0.067139,3.570557,0.274658,-0.610352,16.113281,26.806641,-3.955078
2648252839,-1.005859,-0.102295,0.070313,3.387451,-0.061035,-0.488281,16.113281,26.806641,-3.955078
2651198072,-1.007080,-0.103027,0.066406,3.356934,0.000000,-0.671387,16.113281,26.806641,-3.955078
2654154793,-1.004395,-0.100342,0.066895,2.990723,-0.457764,-0.274658,16.040039,26.586914,-4.028320
2656638487,-1.009766,-0.102051,0.063965,2.990723,-0.762939,-0.183105,16.040039,26.586914,-4.028320
2659291617,-1.001709,-0.101563,0.063477,2.288818,-0.305176,-0.152588,16.040039,26.586914,-4.028320
2661838491,-1.000732,-0.106445,0.063232,2.868652,-1.007080,0.396729,15.380859,26.074219,-3.955078
2664744750,-1.000732,-0.104248,0.065430,2.777100,-0.915527,0.427246,15.380859,26.074219,-3.955078
2667870496,-1.003174,-0.101807,0.059814,2.532959,-0.915527,0.610352,15.380859,26.074219,-3.955078
2670918294,-1.003418,-0.105713,0.061523,2.655029,-0.671387,0.732422,15.380859,26.074219,-3.955078
2673418398,-0.999756,-0.108154,0.060303,2.532959,-0.915527,1.007080,16.625977,26.293945,-3.588867
2675891016,-1.000977,-0.105957,0.059326,2.258301,-0.854492,0.793457,16.625977,26.293945,-3.588867
2678843223,-1.000488,-0.107422,0.060791,2.624512,-0.701904,0.885010,16.625977,26.293945,-3.588867
2681317071,-0.997070,-0.105713,0.057373,1.953125,-1.251221,0.823975,15.893555,26.293945,-3.588867
2683793381,-0.994629,-0.106201,0.065674,1.831055,-0.946045,0.823975,15.893555,26.147461,-4.028320
2686292665,-0.999023,-0.107666,0.063477,1.861572,-0.946045,0.976563,15.893555,26.147461,-4.028320
2688843231,-0.997559,-0.111572,0.064209,1.770020,-1.129150,1.037598,15.893555,26.147461,-4.028320
2691409387,-0.999512,-0.111572,0.063965,1.678467,-0.946045,0.854492,15.966797,26.513672,-3.808594
2693999748,-0.996582,-0.110107,0.059814,1.556396,-1.251221,1.068115,15.966797,26.513672,-3.808594
2696819443,-0.993408,-0.111084,0.062256,1.800537,-1.281738,1.068115,15.966797,26.513672,-3.808594
2699324060,-0.992432,-0.116455,0.064697,1.861572,-1.190186,1.251221,15.966797,26.513672,-3.808594
2702337396,-0.995361,-0.112549,0.062012,2.014160,-1.220703,1.373291,16.333008,26.147461,-4.321289
2705333501,-0.999756,-0.113525,0.067383,2.105713,-1.037598,1.037598,16.333008,26.147461,-4.321289
2707934939,-0.991455,-0.116699,0.065430,1.708984,-1.403809,1.495361,16.333008,26.147461,-4.321289
2711404070,-0.993164,-0.112793,0.069336,2.197266,-1.525879,1.403809,16.333008,26.147461,-4.321289
2714327150,-0.985840,-0.114502,0.068115,2.349854,-1.556396,1.495361,16.333008,26.147461,-4.321289
2717315050,-0.990234,-0.116455,0.066406,2.441406,-1.617432,1.403809,16.333008,26.147461,-4.321289
2719844693,-0.990234,-0.117432,0.071045,1.953125,-1.678467,1.525879,16.333008,26.147461,-4.321289
2722895772,-0.986572,-0.115234,0.074219,2.716064,-1.617432,1.464844,15.966797,26.660156,-3.808594
2725933723,-0.989014,-0.118408,0.066406,2.716064,-1.464844,1.464844,15.966797,26.660156,-3.808594
2728918341,-0.987305,-0.113281,0.067139,2.807617,-1.678467,1.434326,15.966797,26.660156,-3.808594
2731967780,-0.992188,-0.109375,0.075195,2.716064,-1.708984,1.373291,15.966797,26.660156,-3.808594
2734589320,-0.989502,-0.107422,0.075195,2.899170,-1.281738,0.976563,15.966797,26.660156,-3.808594
2737092707,-0.994629,-0.109131,0.068848,2.502441,-1.861572,1.281738,15.966797,26.660156,-3.808594
2739772914,-0.990234,-0.109375,0.069336,2.532959,-1.495361,0.915527,15.966797,26.660156,-3.808594
2742359993,-0.984375,-0.110840,0.066162,2.716064,-1.525879,0.823975,16.040039,26.586914,-3.881836
2745363483,-0.984131,-0.113770,0.065918,2.716064,-1.556396,0.885010,16.040039,26.586914,-3.881836
2747855382,-0.979980,-0.113525,0.072510,2.807617,-1.281738,0.671387,16.040039,26.586914,-3.881836
2750759180,-0.977783,-0.114258,0.073486,3.326416,-1.586914,0.579834,16.040039,26.586914,-3.881836
2753903798,-0.984863,-0.116211,0.070801,3.295898,-1.159668,0.823975,16.040039,26.586914,-3.881836
2756877749,-0.985840,-0.114258,0.071533,3.387451,-1.220703,0.305176,16.040039,26.586914,-3.881836
2759371289,-0.986816,-0.113037,0.072754,3.784180,-0.823975,0.305176,16.040039,26.586914,-3.881836
2762005958,-0.986572,-0.108643,0.064697,3.906250,-0.762939,0.396729,16.479492,26.293945,-3.881836
2764983602,-0.986328,-0.107422,0.069092,3.936768,-0.762939,0.091553,16.479492,26.293945,-3.881836
2767466886,-0.987793,-0.104980,0.069580,3.540039,-0.762939,-0.274658,16.479492,26.293945,-3.881836
2770460939,-0.991699,-0.104248,0.071777,3.540039,-0.671387,-0.183105,16.479492,26.293945,-3.881836
2773521865,-0.988037,-0.108643,0.072266,3.356934,-0.854492,-0.122070,16.479492,26.293945,-3.881836
2776573765,-0.985352,-0.101074,0.072998,3.417969,-0.793457,-0.274658,16.479492,26.293945,-3.881836
2779516947,-0.987793,-0.104980,0.075439,3.570557,-0.854492,-0.122070,16.479492,26.293945,-3.881836
2782465462,-0.986572,-0.103516,0.077148,3.753662,-0.549316,-0.305176,15.893555,26.733398,-3.881836
2785027926,-0.988525,-0.104004,0.072266,3.936768,-0.946045,-0.030518,15.893555,26.733398,-3.881836
2787993672,-0.981934,-0.103516,0.073242,4.180908,-0.366211,-0.030518,15.893555,26.733398,-3.881836
2791069777,-0.987061,-0.100830,0.065674,4.364014,-0.122070,0.366211,15.893555,26.733398,-3.881836
2794072036,-0.986084,-0.097900,0.078369,4.302979,-0.610352,0.183105,15.893555,26.733398,-3.881836
2797025064,-0.991943,-0.095459,0.074219,4.333496,-0.457764,0.518799,15.893555,26.733398,-3.881836
2799555527,-0.992676,-0.090576,0.074463,4.089355,-0.335693,0.244141,15.893555,26.733398,-3.881836
2802526607,-0.993164,-0.087402,0.075439,3.814697,-0.274658,0.610352,15.673828,26.513672,-3.955078
2805522301,-0.994141,-0.085449,0.077393,3.936768,-0.427246,0.732422,15.673828,26.513672,-3.955078
2808076970,-0.995361,-0.080811,0.073730,3.509521,-0.579834,0.762939,15.673828,26.513672,-3.955078
2811082921,-0.993164,-0.085449,0.075439,3.173828,-0.396729,0.762939,15.673828,26.513672,-3.955078
2813782821,-0.989990,-0.083740,0.077148,2.777100,-0.152588,0.946045,15.673828,26.513672,-3.955078
2816229182,-0.992188,-0.087646,0.075928,2.746582,-0.457764,0.976563,15.673828,26.513672,-3.955078
2818762107,-0.987793,-0.088379,0.074463,2.563477,-0.152588,1.129150,15.673828,26.513672,-3.955078
2821733187,-0.985840,-0.088623,0.072266,2.777100,-0.030518,1.342773,16.113281,26.220703,-4.248047
2824280471,-0.988281,-0.089355,0.070801,2.624512,0.366211,1.281738,16.113281,26.220703,-4.248047
2826813806,-0.986816,-0.091309,0.068115,2.624512,0.518799,1.708984,16.113281,26.220703,-4.248047
2829315142,-0.987305,-0.092529,0.067139,2.777100,0.488281,1.586914,16.113281,26.220703,-4.248047
2831812785,-0.991943,-0.090088,0.063232,2.746582,0.946045,1.525879,16.113281,26.220703,-4.248047
2834313710,-0.987549,-0.097168,0.060547,2.532959,0.762939,1.373291,16.113281,26.220703,-4.248047
2836825302,-0.984863,-0.093262,0.064453,2.197266,1.068115,1.220703,16.113281,26.220703,-4.248047
2839801304,-0.987061,-0.099121,0.071289,1.831055,1.312256,1.403809,16.113281,26.220703,-4.248047
2843357409,-0.992188,-0.101563,0.068604,1.617432,1.281738,1.068115,16.186523,26.586914,-4.174805
2846292386,-0.989258,-0.101318,0.063721,1.556396,1.464844,0.793457,16.186523,26.586914,-4.174805
2848797824,-0.989258,-0.099854,0.064453,1.251221,1.190186,0.579834,16.186523,26.586914,-4.174805
2851296288,-0.989990,-0.105957,0.059326,1.770020,1.617432,0.518799,16.186523,26.586914,-4.174805
2854248906,-0.987305,-0.106445,0.057129,1.617432,1.800537,0.396729,16.186523,26.586914,-4.174805
2857361523,-0.988525,-0.105225,0.057861,1.678467,2.075195,0.061035,16.186523,26.586914,-4.174805
2860304295,-0.990967,-0.106201,0.057861,1.739502,1.586914,0.061035,16.186523,26.586914,-4.174805
2862902451,-0.994385,-0.107422,0.058105,1.678467,1.831055,-0.457764,16.040039,26.440430,-4.760742
2865485428,-0.989502,-0.106445,0.060059,1.922607,1.708984,-0.518799,16.040039,26.440430,-4.760742
2868246455,-0.989746,-0.108887,0.060059,1.892090,1.800537,-0.823975,16.040039,26.440430,-4.760742
2870848304,-0.991211,-0.109375,0.066406,1.708984,1.708984,-1.098633,16.479492,26.293945,-3.881836
2873869845,-0.990479,-0.107910,0.066406,1.556396,1.708984,-1.251221,16.479492,26.293945,-3.881836
2876891386,-0.990723,-0.109131,0.068848,1.861572,1.464844,-1.403809,16.479492,26.293945,-3.881836
2879828824,-0.987305,-0.111816,0.058350,2.197266,1.800537,-1.770020,16.479492,26.293945,-3.881836
2882283800,-0.992432,-0.113281,0.058838,2.471924,1.556396,-1.434326,16.406250,26.074219,-3.808594
2884868828,-0.990967,-0.111572,0.065674,2.746582,1.464844,-1.617432,16.406250,26.074219,-3.808594
2887694266,-0.990234,-0.113770,0.071777,2.716064,1.708984,-1.892090,16.406250,26.074219,-3.808594
2890717448,-0.993896,-0.114502,0.074463,3.326416,1.281738,-1.556396,16.406250,26.074219,-3.808594
2893671297,-0.993896,-0.110352,0.069824,4.058838,1.312256,-1.556396,15.966797,26.513672,-3.515625
2896664120,-0.991455,-0.105713,0.067139,4.394531,1.647949,-1.953125,15.966797,26.513672,-3.515625
2899397661,-0.997070,-0.101807,0.067627,4.486084,1.434326,-2.044678,15.966797,26.513672,-3.515625
2902374483,-0.996094,-0.099121,0.076416,4.699707,1.281738,-2.044678,15.747070,27.026367,-4.321289
2904887716,-1.003174,-0.097656,0.072754,4.608154,1.129150,-2.105713,15.747070,27.026367,-4.321289
2907891206,-0.993652,-0.093506,0.076172,4.150391,1.068115,-2.380371,15.747070,27.026367,-4.321289
2910894285,-0.997070,-0.089355,0.070801,4.119873,0.793457,-2.258301,16.186523,26.293945,-4.174805
2913835416,-0.995361,-0.093750,0.075684,3.601074,0.701904,-2.502441,16.186523,26.293945,-4.174805
2916337982,-0.996582,-0.093506,0.075928,3.570557,0.671387,-2.349854,16.186523,26.293945,-4.174805
2918886907,-0.991943,-0.089844,0.066650,3.845215,0.305176,-1.953125,16.186523,26.293945,-4.174805
2921887525,-0.989990,-0.088867,0.064453,3.479004,0.549316,-1.831055,16.186523,26.879883,-4.028320
2924603425,-0.991943,-0.085693,0.062256,3.723145,0.701904,-1.770020,16.186523,26.879883,-4.028320
2927069478,-0.992432,-0.083496,0.056641,3.997803,0.579834,-1.312256,16.186523,26.879883,-4.028320
2929670506,-0.996338,-0.082520,0.062500,3.570557,0.457764,-1.159668,16.186523,26.879883,-4.028320
2932520149,-0.994385,-0.079346,0.059326,2.990723,0.396729,-1.098633,16.333008,25.854492,-4.760742
2935471947,-0.991211,-0.080566,0.062012,2.838135,0.885010,-1.068115,16.333008,25.854492,-4.760742
2938362616,-0.989746,-0.080078,0.052979,2.197266,0.976563,-0.793457,16.333008,25.854492,-4.760742
2941049387,-0.988770,-0.082520,0.068848,1.708984,0.885010,-0.671387,16.333008,25.854492,-4.760742
2943986005,-0.991211,-0.080566,0.064453,1.403809,0.915527,-0.854492,16.333008,25.854492,-4.760742
2946427853,-0.984375,-0.083740,0.069092,0.732422,1.281738,-0.793457,16.333008,25.854492,-4.760742
2949410009,-0.987549,-0.083008,0.063721,0.366211,0.976563,-0.732422,16.333008,25.854492,-4.760742
2952412678,-0.985107,-0.086914,0.061768,-0.305176,0.854492,-0.793457,16.479492,26.147461,-4.174805
2955353399,-0.982910,-0.087891,0.064209,0.000000,1.251221,-0.793457,16.479492,26.147461,-4.174805
2957844067,-0.979736,-0.096436,0.070068,-0.061035,1.098633,-0.640869,16.479492,26.147461,-4.174805
2960858224,-0.978516,-0.096924,0.063232,0.000000,1.708984,-0.610352,16.479492,26.147461,-4.174805
2963350944,-0.979004,-0.103760,0.061768,-0.183105,1.403809,-0.213623,16.479492,26.147461,-4.174805
2966373715,-0.979980,-0.099854,0.061279,-0.061035,1.617432,-0.396729,16.479492,26.147461,-4.174805
2968872179,-0.977539,-0.108398,0.065674,-0.152588,1.983643,-0.640869,16.479492,26.147461,-4.174805
2971513002,-0.978760,-0.113281,0.065186,0.213623,2.044678,-0.274658,16.699219,26.513672,-3.808594
2974471363,-0.980957,-0.114990,0.069824,0.549316,2.380371,-0.885010,16.699219,26.513672,-3.808594
2977499878,-0.985352,-0.114746,0.072021,0.396729,2.532959,-1.037598,16.699219,26.513672,-3.808594
2980033214,-0.986084,-0.116943,0.069824,0.457764,2.716064,-0.976563,16.699219,26.513672,-3.808594
2982985832,-0.989502,-0.115967,0.073730,0.518799,2.777100,-1.556396,16.699219,26.513672,-3.808594
2985487988,-0.995850,-0.116699,0.075195,0.701904,2.807617,-1.831055,16.699219,26.513672,-3.808594
2988465631,-0.997314,-0.116943,0.075195,0.732422,2.899170,-1.983643,16.699219,26.513672,-3.808594
2991494146,-0.999268,-0.121094,0.072021,0.854492,2.807617,-2.807617,16.333008,26.733398,-4.028320
2994171892,-0.998535,-0.117188,0.081543,1.403809,2.349854,-3.051758,16.333008,26.733398,-4.028320
2997242664,-1.004395,-0.117920,0.075439,1.007080,2.655029,-3.356934,16.333008,26.733398,-4.028320
3000093538,-1.003662,-0.120850,0.071777,1.312256,2.502441,-3.875732,16.333008,26.733398,-4.028320
3003023592,-1.003174,-0.121094,0.073730,1.617432,2.288818,-3.845215,16.333008,26.733398,-4.028320
3006015594,-1.003906,-0.125488,0.063721,2.044678,2.105713,-4.089355,16.333008,26.733398,-4.028320
3008518571,-1.002686,-0.119873,0.067871,2.441406,2.380371,-4.272461,16.333008,26.733398,-4.028320
3011019085,-1.006104,-0.121826,0.062744,2.807617,2.105713,-4.058838,16.333008,26.440430,-4.174805
3013677549,-1.002197,-0.123779,0.065186,3.356934,2.380371,-4.180908,16.333008,26.440430,-4.174805
3016617449,-1.004639,-0.122070,0.054932,3.417969,2.105713,-3.967285,16.333008,26.440430,-4.174805
3019577451,-1.009277,-0.119629,0.055664,4.119873,2.014160,-4.211426,16.333008,26.440430,-4.174805
3022093966,-1.012451,-0.110107,0.050293,3.936768,1.953125,-3.875732,16.333008,26.440430,-4.174805
3025090892,-1.011963,-0.106201,0.050049,3.997803,1.708984,-4.150391,16.333008,26.440430,-4.174805
3027616022,-1.011719,-0.099609,0.047852,3.570557,1.617432,-4.241943,16.333008,26.440430,-4.174805
3030266691,-1.011719,-0.097900,0.047119,3.143311,1.647949,-4.272461,16.040039,26.733398,-3.881836
3033186899,-1.011963,-0.095459,0.047363,2.777100,1.220703,-4.364014,16.040039,26.733398,-3.881836
3036129260,-1.008789,-0.096924,0.044189,2.380371,1.190186,-4.333496,16.040039,26.733398,-3.881836
3038827108,-1.013916,-0.095459,0.047119,1.953125,1.251221,-3.662109,16.040039,26.733398,-3.881836
3041476957,-1.015137,-0.097412,0.045166,1.495361,1.159668,-3.631592,16.040039,26.733398,-3.881836
3044013984,-1.009766,-0.097412,0.041260,1.708984,0.946045,-3.570557,16.040039,26.733398,-3.881836
3047022807,-1.014160,-0.097900,0.039063,1.586914,1.190186,-3.265381,16.040039,26.733398,-3.881836
3049546707,-1.018799,-0.098633,0.053223,1.464844,1.098633,-2.746582,16.040039,26.733398,-3.881836
3052603530,-1.018555,-0.098877,0.056396,1.434326,0.762939,-2.471924,16.479492,26.147461,-4.174805
3055554507,-1.015137,-0.103271,0.053955,1.129150,0.885010,-2.227783,16.479492,26.147461,-4.174805
3058071432,-1.016846,-0.098389,0.055908,1.037598,0.610352,-1.800537,16.479492,26.147461,-4.174805
3060667536,-1.016113,-0.101807,0.060791,0.701904,0.335693,-1.770020,16.479492,26.147461,-4.174805
3063668975,-1.016602,-0.105469,0.058350,0.732422,0.000000,-1.312256,16.479492,26.147461,-4.174805
3067101183,-1.019287,-0.107666,0.063721,0.793457,-0.335693,-1.220703,16.479492,26.147461,-4.174805
3069915954,-1.018799,-0.110596,0.059570,0.823975,-0.244141,-1.037598,16.479492,26.586914,-4.174805
3072498110,-1.017334,-0.116943,0.065186,1.098633,-0.671387,-0.915527,16.479492,26.586914,-4.174805
3074993292,-1.016113,-0.115479,0.066406,0.793457,-1.220703,-0.762939,16.479492,26.586914,-4.174805
3077482730,-1.017090,-0.114258,0.068604,1.342773,-1.342773,-0.762939,16.479492,26.586914,-4.174805
3079932373,-1.013672,-0.117188,0.066162,0.732422,-1.098633,-0.976563,16.479492,26.586914,-4.174805
3082488683,-1.011475,-0.117676,0.069092,1.129150,-1.678467,-0.610352,16.479492,26.586914,-4.174805
3084997813,-1.010498,-0.120117,0.068848,1.251221,-2.288818,-1.159668,16.479492,26.586914,-4.174805
3087940584,-1.005615,-0.120361,0.072266,1.007080,-2.319336,-1.068115,16.479492,26.586914,-4.174805
3090567458,-1.004150,-0.123535,0.070313,1.251221,-2.685547,-0.732422,15.747070,26.586914,-4.467773
3093492589,-1.004639,-0.125244,0.062012,1.403809,-2.746582,-1.037598,15.747070,26.586914,-4.467773
3096067771,-1.004150,-0.126709,0.071533,1.403809,-2.929688,-1.251221,15.747070,26.586914,-4.467773
3099065927,-1.003418,-0.125000,0.071045,1.953125,-3.234863,-1.220703,15.747070,26.586914,-4.467773
3102173212,-1.001953,-0.124756,0.065430,1.770020,-3.112793,-1.159668,15.747070,26.586914,-4.467773
3105211573,-1.003906,-0.124268,0.069580,1.892090,-3.356934,-1.220703,15.747070,26.586914,-4.467773
3108133011,-0.999268,-0.122803,0.066895,1.983643,-3.356934,-1.068115,15.747070,26.586914,-4.467773
3110982244,-0.995850,-0.122070,0.069336,2.380371,-3.540039,-0.671387,15.747070,26.586914,-4.028320
3113686247,-0.991699,-0.122803,0.071533,2.380371,-3.601074,-0.640869,15.747070,26.586914,-4.028320
3116180608,-0.990723,-0.119141,0.071533,2.624512,-3.540039,-0.946045,15.747070,26.586914,-4.028320
3118705738,-0.990723,-0.115234,0.074951,2.868652,-3.570557,-0.762939,15.747070,26.586914,-4.028320
3121527894,-0.983398,-0.114746,0.072998,2.838135,-3.234863,-0.671387,15.747070,26.586914,-4.028320
3124439486,-0.990967,-0.115479,0.070313,2.929688,-3.265381,-0.732422,15.747070,26.586914,-4.028320
3126909642,-0.985107,-0.112549,0.079346,2.655029,-3.540039,-0.854492,15.747070,26.586914,-4.028320
3129698978,-0.984375,-0.109619,0.074463,2.563477,-3.356934,-0.823975,16.333008,26.293945,-4.028320
3132307800,-0.984619,-0.107422,0.074951,2.258301,-3.509521,-1.098633,16.333008,26.293945,-4.028320
3134955187,-0.979248,-0.105225,0.083008,2.166748,-3.051758,-0.915527,16.333008,26.293945,-4.028320
3137905754,-0.968750,-0.098633,0.077393,2.441406,-3.387451,-1.007080,16.333008,26.293945,-4.028320
3140857961,-0.976807,-0.110596,0.073975,2.441406,-2.807617,-1.098633,16.699219,26.220703,-3.808594
3143894271,-0.978027,-0.108398,0.086182,2.227783,-2.563477,-0.762939,16.699219,26.220703,-3.808594
3146377556,-0.977051,-0.098145,0.080322,1.953125,-2.227783,-0.640869,16.699219,26.220703,-3.808594
3149026173,-0.972900,-0.099854,0.084717,1.953125,-2.014160,-0.946045,16.699219,26.220703,-3.808594
3151987406,-0.962891,-0.104980,0.079590,2.166748,-1.525879,-0.823975,16.918945,25.854492,-4.174805
3154637255,-0.966064,-0.108398,0.078369,2.166748,-1.739502,-0.823975,16.918945,25.854492,-4.174805
3157135718,-0.967285,-0.106445,0.079346,1.892090,-1.464844,-0.335693,16.918945,25.854492,-4.174805
3159930387,-0.968262,-0.107666,0.083740,2.075195,-1.312256,-0.640869,15.820313,26.367188,-4.101563
3162423517,-0.972900,-0.105957,0.091797,2.014160,-0.976563,-0.762939,15.820313,26.367188,-4.101563
3164964237,-0.971924,-0.108398,0.083740,1.770020,-0.732422,-0.762939,15.820313,26.367188,-4.101563
3167992753,-0.970215,-0.109863,0.087891,1.922607,-0.640869,-0.610352,15.820313,26.367188,-4.101563
3170542088,-0.966797,-0.109619,0.085693,1.678467,-0.335693,-0.518799,16.259766,26.220703,-4.101563
3173272347,-0.972412,-0.110596,0.086914,1.800537,-0.274658,-0.732422,16.259766,26.220703,-4.101563
3176230708,-0.969238,-0.109131,0.084473,1.953125,-0.244141,-0.518799,16.259766,26.220703,-4.101563
3178739838,-0.972168,-0.110107,0.078613,1.831055,0.000000,-0.335693,16.259766,26.220703,-4.101563
3181437687,-0.972900,-0.104492,0.084961,1.953125,0.213623,-0.457764,16.918945,26.879883,-4.467773
3183936971,-0.975098,-0.104004,0.089355,1.770020,0.244141,-0.274658,16.918945,26.879883,-4.467773
3186441588,-0.969727,-0.103271,0.087646,2.014160,0.213623,-0.183105,16.918945,26.879883,-4.467773
3188942514,-0.975098,-0.106201,0.082275,1.647949,0.549316,-0.305176,16.918945,26.879883,-4.467773
3191464772,-0.971680,-0.107178,0.084717,1.800537,0.305176,-0.152588,16.918945,26.879883,-4.467773
3194310723,-0.971680,-0.103027,0.082520,1.678467,0.671387,-0.518799,16.918945,26.879883,-4.467773
3196835033,-0.970215,-0.106934,0.078857,1.098633,0.701904,-0.457764,16.918945,26.879883,-4.467773
3199866010,-0.970459,-0.099854,0.093262,1.190186,0.427246,-0.457764,16.040039,26.586914,-4.028320
3202879756,-0.970947,-0.105225,0.083008,1.068115,0.732422,-0.274658,16.040039,26.586914,-4.028320
3206336989,-0.972900,-0.108154,0.073730,0.732422,1.007080,-0.427246,16.040039,26.586914,-4.028320
3208841607,-0.968262,-0.109619,0.076660,0.671387,1.068115,-0.793457,16.040039,26.586914,-4.028320
3211338019,-0.975098,-0.111572,0.077881,0.854492,1.373291,-0.762939,16.040039,26.586914,-4.028320
3213790944,-0.969482,-0.111816,0.078613,0.610352,1.281738,-0.854492,16.040039,26.586914,-4.028320
3216286946,-0.968994,-0.111816,0.071289,0.823975,1.556396,-0.793457,16.040039,26.586914,-4.028320
3218787871,-0.971191,-0.113037,0.072021,0.610352,1.373291,-0.885010,16.040039,26.586914,-4.028320
3221334745,-0.974609,-0.112549,0.082520,1.068115,1.708984,-0.793457,16.186523,26.440430,-4.028320
3224093722,-0.967529,-0.115723,0.078613,1.129150,1.678467,-1.068115,16.186523,26.440430,-4.028320
3227090647,-0.971436,-0.118164,0.080078,1.434326,1.708984,-0.885010,16.186523,26.440430,-4.028320
3230101932,-0.969238,-0.119873,0.082764,1.861572,1.617432,-0.946045,16.186523,26.440430,-4.028320
3233141934,-0.969727,-0.118408,0.073486,2.319336,2.136230,-0.854492,16.186523,26.440430,-4.028320
3236217629,-0.972900,-0.118652,0.074707,2.868652,1.953125,-0.915527,16.186523,26.440430,-4.028320
3239109529,-0.971924,-0.115234,0.082031,3.204346,2.319336,-0.701904,16.186523,26.440430,-4.028320
3242145429,-0.971680,-0.116943,0.076416,3.479004,2.441406,-0.732422,16.406250,26.513672,-3.662109
3245086560,-0.971436,-0.114502,0.076416,3.540039,2.197266,-1.037598,16.406250,26.513672,-3.662109
3247647792,-0.976318,-0.115234,0.075928,3.601074,2.655029,-1.037598,16.406250,26.513672,-3.662109
3250451077,-0.973877,-0.112549,0.074951,3.540039,2.746582,-1.098633,16.406250,26.513672,-3.662109
3253049643,-0.977295,-0.111572,0.071777,3.692627,2.685547,-1.098633,16.406250,26.513672,-3.662109
3256036312,-0.972412,-0.109375,0.070557,3.570557,2.624512,-1.098633,16.406250,26.513672,-3.662109
3258563083,-0.973389,-0.106934,0.072021,3.356934,2.868652,-1.342773,16.406250,26.513672,-3.662109
3261463599,-0.978271,-0.108398,0.076172,3.387451,2.685547,-1.708984,16.479492,26.440430,-4.321289
3264068319,-0.973877,-0.103760,0.076416,3.082275,3.021240,-1.678467,16.479492,26.440430,-4.321289
3266574167,-0.975342,-0.104736,0.073730,2.868652,2.777100,-1.739502,16.479492,26.440430,-4.321289
3269598169,-0.975830,-0.102295,0.068604,2.532959,2.899170,-1.831055,16.479492,26.440430,-4.321289
3272200018,-0.974609,-0.102295,0.070557,2.685547,2.777100,-1.922607,16.479492,26.440430,-4.321289
3275325354,-0.976318,-0.098633,0.072754,2.410889,3.204346,-1.800537,16.479492,26.440430,-4.321289
3278332946,-0.979736,-0.093750,0.073975,2.441406,3.021240,-2.014160,16.479492,26.440430,-4.321289
3281080435,-0.979736,-0.095459,0.071777,2.044678,3.204346,-1.892090,16.333008,26.586914,-4.028320
3283852130,-0.979980,-0.094238,0.074951,2.258301,3.173828,-1.861572,16.333008,26.586914,-4.028320
3286849055,-0.978271,-0.089355,0.068359,1.892090,3.479004,-2.136230,16.333008,26.586914,-4.028320
3289821366,-0.977539,-0.090088,0.069824,1.525879,3.448486,-1.770020,16.333008,26.586914,-4.028320
3292828547,-0.975586,-0.093262,0.070557,1.190186,3.601074,-2.075195,16.333008,26.586914,-4.028320
3295802088,-0.969971,-0.093750,0.069336,1.281738,3.601074,-1.983643,16.333008,26.586914,-4.028320
3298593475,-0.973145,-0.095947,0.067139,1.068115,3.936768,-1.708984,16.333008,26.586914,-4.028320
3301107939,-0.969971,-0.098877,0.061279,1.007080,4.180908,-1.861572,16.479492,26.147461,-4.321289
3303807018,-0.967285,-0.098389,0.055420,1.312256,4.211426,-2.197266,16.479492,26.147461,-4.321289
3306344046,-0.969971,-0.107666,0.044922,0.732422,4.516602,-2.197266,16.479492,26.147461,-4.321289
3309326202,-0.970947,-0.104492,0.052490,0.854492,4.760742,-2.319336,16.479492,26.147461,-4.321289
3311927640,-0.966797,-0.104980,0.049561,0.671387,5.126953,-2.227783,16.479492,26.147461,-4.321289
3314477386,-0.971191,-0.110352,0.052246,0.244141,5.462646,-2.838135,16.479492,26.147461,-4.321289
3317076362,-0.979980,-0.109131,0.050049,0.244141,5.737305,-2.746582,16.479492,26.147461,-4.321289
3319824262,-0.977295,-0.109375,0.052246,0.305176,5.889893,-2.838135,16.918945,26.733398,-3.881836
3322888059,-0.979248,-0.113037,0.051270,0.305176,5.737305,-3.234863,16.918945,26.733398,-3.881836
